"Time (s)","Gyroscope x (rad/s)","Gyroscope y (rad/s)","Gyroscope z (rad/s)"
6.296011600E-2,-1.911652088E0,9.857590199E-1,-1.535391688E0
6.803407500E-2,-1.882357240E0,9.122558832E-1,-1.531663299E0
7.309496000E-2,-1.791277170E0,6.848221421E-1,-1.595046520E0
7.813339800E-2,-1.719904661E0,3.157083094E-1,-1.632330656E0
8.321209600E-2,-1.710317254E0,-5.873180926E-2,-1.632863402E0
8.826996000E-2,-1.729491830E0,-3.831045628E-1,-1.621678114E0
9.332735600E-2,-1.753460407E0,-6.685951352E-1,-1.595579147E0
9.838522100E-2,-1.769439220E0,-8.811152577E-1,-1.552435994E0
1.034457410E-1,-1.788081527E0,-1.032382607E0,-1.517282248E0
1.085007410E-1,-1.798201442E0,-1.216673136E0,-1.486922264E0
1.135588660E-1,-1.795538306E0,-1.415877461E0,-1.458692789E0
1.186155330E-1,-1.788614035E0,-1.612418652E0,-1.424604416E0
1.236494910E-1,-1.797668815E0,-1.819079638E0,-1.363884211E0
1.287077730E-1,-1.810984612E0,-2.041719675E0,-1.276000142E0
1.337665230E-1,-1.806723595E0,-2.241456509E0,-1.173734784E0
1.388216790E-1,-1.782755017E0,-2.398583174E0,-1.056023240E0
1.438824080E-1,-1.740144610E0,-2.536001921E0,-9.612147212E-1
1.489535540E-1,-1.685283542E0,-2.613233805E0,-8.914399147E-1
1.539992310E-1,-1.598997116E0,-2.612700939E0,-8.024904728E-1
1.590558460E-1,-1.483948708E0,-2.592993736E0,-6.741262078E-1
1.641500120E-1,-1.338007689E0,-2.546122074E0,-5.404356718E-1
1.692095960E-1,-1.149456024E0,-2.479542971E0,-4.259198308E-1
1.742669390E-1,-9.374684691E-1,-2.452911377E0,-3.215239942E-1
1.793243870E-1,-7.265462875E-1,-2.465694666E0,-2.171281427E-1
1.843826160E-1,-5.182873011E-1,-2.490728378E0,-1.255154908E-1
1.894029810E-1,-3.041693866E-1,-2.512033463E0,-3.337021172E-2
1.944965230E-1,-7.993137836E-2,-2.522686243E0,4.492665455E-2
1.995568870E-1,1.597529054E-1,-2.503511429E0,9.339614958E-2
2.046150640E-1,3.983719051E-1,-2.412964106E0,1.546488106E-1
2.096724600E-1,6.295341849E-1,-2.284600019E0,2.451962084E-1
2.147299080E-1,8.660226464E-1,-2.162627220E0,3.245582879E-1
2.197911580E-1,1.076944709E0,-2.077938795E0,3.772888482E-1
2.248398040E-1,1.258572221E0,-2.016686201E0,4.012572765E-1
2.299048560E-1,1.429547071E0,-1.873940706E0,3.868762255E-1
2.349631370E-1,1.556313396E0,-1.636386991E0,3.495920002E-1
2.400213660E-1,1.596260667E0,-1.318938494E0,3.075140715E-1
2.450804810E-1,1.509974360E0,-9.210626483E-1,2.760888040E-1
2.501013660E-1,1.315563798E0,-4.587382376E-1,2.643709183E-1
2.551947000E-1,1.068955302E0,-4.062232375E-2,2.819477618E-1
2.602153250E-1,8.196837306E-1,2.246282995E-1,3.341456652E-1
2.653102730E-1,5.730751753E-1,3.252956867E-1,4.198994040E-1
2.703662100E-1,3.451087475E-1,2.816198766E-1,5.301541686E-1
2.753911060E-1,1.528286934E-1,8.188297600E-2,6.388110518E-1
2.804473560E-1,-4.297672771E-3,-2.696540058E-1,7.027269006E-1
2.855063660E-1,-1.481082588E-1,-7.735236287E-1,6.803563237E-1
2.906003770E-1,-3.105609417E-1,-1.353026867E0,5.578510165E-1
2.956213660E-1,-4.756768048E-1,-1.877136588E0,3.623751700E-1
3.007151160E-1,-6.061714888E-1,-2.259566307E0,1.535835564E-1
3.057379810E-1,-6.945883632E-1,-2.513631344E0,-2.538073622E-2
3.107962100E-1,-7.638305426E-1,-2.689932585E0,-1.745176166E-1
3.158906370E-1,-8.186916113E-1,-2.811372519E0,-2.986208498E-1
3.209516270E-1,-8.586390018E-1,-2.879016876E0,-3.854398131E-1
3.259696480E-1,-8.730200529E-1,-2.866233587E0,-4.493556321E-1
3.310638140E-1,-8.597042561E-1,-2.791132689E0,-4.962272346E-1
3.360868350E-1,-8.213547468E-1,-2.697389364E0,-5.154019594E-1
3.411448040E-1,-7.632978559E-1,-2.569025278E0,-5.111408830E-1
3.462388140E-1,-7.116325498E-1,-2.423084021E0,-4.845093191E-1
3.512602730E-1,-6.967188716E-1,-2.212162018E0,-4.530840814E-1
3.563185540E-1,-6.999146938E-1,-1.893648148E0,-4.413661361E-1
3.613752730E-1,-6.578367949E-1,-1.405757546E0,-4.781177640E-1
3.664720960E-1,-4.847315550E-1,-7.474246621E-1,-5.691977739E-1
3.714915230E-1,-1.790008992E-1,-1.505600195E-2,-6.687998772E-1
3.765500120E-1,1.869171262E-1,6.517989635E-1,-7.417704463E-1
3.816076690E-1,5.379214883E-1,1.171114922E0,-7.715978026E-1
3.866656890E-1,8.266078830E-1,1.519456148E0,-7.178019881E-1
3.917254810E-1,1.073216319E0,1.720790982E0,-5.532187819E-1
3.967818870E-1,1.293193340E0,1.841165662E0,-2.916966379E-1
4.018397520E-1,1.460972190E0,2.019064665E0,2.628454566E-2
4.068975120E-1,1.521692276E0,2.250759363E0,3.314825296E-1
4.119577210E-1,1.416763902E0,2.401494265E0,5.413394570E-1
4.170169390E-1,1.150980592E0,2.340241671E0,5.887436867E-1
4.220892830E-1,8.489784598E-1,1.937039495E0,4.156383574E-1
4.271338140E-1,5.986415148E-1,1.185495973E0,3.587191552E-2
4.322258980E-1,3.674792647E-1,2.368788272E-1,-3.742545545E-1
4.372462620E-1,1.906455457E-1,-5.876351595E-1,-4.887703657E-1
4.423053250E-1,2.018308192E-1,-8.848437071E-1,-2.394986898E-1
4.473625640E-1,4.878540635E-1,-6.696604490E-1,1.541161686E-1
4.524199080E-1,1.000778437E0,-2.222497463E-1,4.832825661E-1
4.575123560E-1,1.659111261E0,2.874788344E-1,6.787584424E-1
4.625711060E-1,2.375500917E0,8.451442719E-1,7.501311302E-1
4.675962620E-1,3.063128471E0,1.441691995E0,7.661100626E-1
4.726761580E-1,3.669795990E0,2.017999411E0,7.975353599E-1
4.777094910E-1,4.149697304E0,2.506955385E0,8.625164032E-1
4.827691790E-1,4.455960751E0,2.881395340E0,9.615859389E-1
4.878620440E-1,4.583259583E0,3.147711277E0,1.079297543E0
4.928845960E-1,4.555562496E0,3.331469536E0,1.176769137E0
4.979422520E-1,4.381924629E0,3.433734655E0,1.216183901E0
5.030403770E-1,4.035714149E0,3.430006266E0,1.165583849E0
5.080845440E-1,3.537703276E0,3.313359737E0,1.051600695E0
5.131554810E-1,2.946482182E0,3.084328413E0,9.232364297E-1
5.181748040E-1,2.370174408E0,2.779130220E0,8.550595641E-1
5.232357410E-1,1.931818724E0,2.373797655E0,8.651795983E-1
5.282917310E-1,1.669763923E0,1.883776307E0,9.424111843E-1
5.333498560E-1,1.551519752E0,1.379906654E0,1.085689068E0
5.384072000E-1,1.565368056E0,8.845590353E-1,1.279567003E0
5.434658460E-1,1.664970279E0,3.726999164E-1,1.474510312E0
5.485243870E-1,1.809313416E0,-1.386265606E-1,1.628973484E0
5.535798560E-1,1.960580826E0,-5.657972693E-1,1.725379944E0
5.586395440E-1,2.084684134E0,-8.432983756E-1,1.741891503E0
5.636967830E-1,2.159252405E0,-9.871089458E-1,1.640158772E0
5.687547000E-1,2.141143084E0,-1.065405846E0,1.437226057E0
5.738137620E-1,2.030888081E0,-1.087776303E0,1.203933358E0
5.788724080E-1,1.864174485E0,-1.031849980E0,9.908806682E-1
5.839291270E-1,1.693199754E0,-8.869741559E-1,8.188405633E-1
5.889870440E-1,1.563770175E0,-6.733888388E-1,7.027269006E-1
5.940446480E-1,1.501452327E0,-4.257150888E-1,6.345499754E-1
5.991029290E-1,1.504648089E0,-1.727149934E-1,6.052552462E-1
6.041623040E-1,1.554182768E0,5.365349352E-2,5.866131783E-1
6.092217830E-1,1.623957515E0,1.905398518E-1,5.487963557E-1
6.142766270E-1,1.680949092E0,2.262261957E-1,4.822172821E-1
6.193358460E-1,1.703852296E0,2.198346108E-1,4.172362387E-1
6.243946480E-1,1.695862889E0,2.251609266E-1,3.895393908E-1
6.294520440E-1,1.660709143E0,2.736304104E-1,4.033877850E-1
6.345122000E-1,1.594130158E0,3.540577888E-1,4.246930778E-1
6.395677730E-1,1.481212378E0,4.344851971E-1,4.193667769E-1
6.446255850E-1,1.327814341E0,5.244999528E-1,3.959309757E-1
6.497013140E-1,1.165894270E0,6.272979379E-1,3.772888482E-1
6.547447000E-1,1.029540539E0,7.306284308E-1,3.810172677E-1
6.597999600E-1,9.587005377E-1,8.350242972E-1,4.039204419E-1
6.648938140E-1,9.629616737E-1,9.431484938E-1,4.209646583E-1
6.699157940E-1,1.026344776E0,1.058197021E0,4.060509801E-1
6.749955850E-1,1.131273270E0,1.173778176E0,3.858109415E-1
6.800342310E-1,1.257506847E0,1.262194991E0,3.815498948E-1
6.850911580E-1,1.381077409E0,1.304805517E0,3.927351832E-1
6.901472000E-1,1.490799665E0,1.309599161E0,4.332152009E-1
6.952073040E-1,1.561639667E0,1.278706551E0,5.061857700E-1
7.002645960E-1,1.597326040E0,1.214258075E0,6.052552462E-1
7.053214190E-1,1.584010243E0,1.126374006E0,7.144447565E-1
7.103799080E-1,1.527551174E0,1.004933834E0,8.262974620E-1
7.154391270E-1,1.425285935E0,8.472747803E-1,9.477375150E-1
7.205345960E-1,1.303313255E0,6.299610734E-1,1.063851237E0
7.255565230E-1,1.168557405E0,3.572536111E-1,1.153865933E0
7.306124600E-1,1.045519471E0,8.401350677E-2,1.211922884E0
7.356699080E-1,9.597658515E-1,-1.482139230E-1,1.230032325E0
7.407309500E-1,9.198184609E-1,-3.287761211E-1,1.220444918E0
7.457860020E-1,9.171553254E-1,-4.438245893E-1,1.199139714E0
7.508811060E-1,9.427216053E-1,-4.816414118E-1,1.167181730E0
7.559019910E-1,9.757447839E-1,-4.262477160E-1,1.131495476E0
7.609611060E-1,9.933216572E-1,-2.664581835E-1,1.084091187E0
7.660180330E-1,9.885279536E-1,-4.008969665E-2,1.020707965E0
7.710777210E-1,9.602984786E-1,2.006598711E-1,9.434764385E-1
7.761371480E-1,9.150247574E-1,4.169083536E-1,8.657122254E-1
7.812304290E-1,8.686858416E-1,5.633820891E-1,7.991332412E-1
7.862507410E-1,8.425868154E-1,6.187757850E-1,7.448047996E-1
7.913087100E-1,8.399236798E-1,5.985357761E-1,6.888784766E-1
7.963679810E-1,8.772079349E-1,5.436747074E-1,6.095163226E-1
8.014257410E-1,9.448521733E-1,4.584536254E-1,5.131099820E-1
8.064822520E-1,1.019420505E0,3.418072462E-1,4.241604507E-1
8.115745440E-1,1.072151065E0,2.459335476E-1,3.538530767E-1
8.166322520E-1,1.085999608E0,2.097145915E-1,2.984593511E-1
8.216897520E-1,1.048182726E0,2.033230215E-1,2.521203756E-1
8.267545960E-1,9.491131902E-1,2.240956575E-1,2.260214686E-1
8.318087100E-1,7.909215689E-1,2.730977833E-1,2.249561995E-1
8.368315750E-1,5.981088877E-1,3.087840974E-1,2.313477844E-1
8.418894910E-1,3.823929727E-1,3.087840974E-1,2.404025197E-1
8.469472000E-1,1.863844991E-1,2.736304104E-1,2.473267317E-1
8.520063660E-1,4.363918304E-2,2.246282995E-1,2.473267317E-1
8.570631370E-1,-6.501769274E-2,1.782893389E-1,2.356088310E-1
8.621214190E-1,-1.571629792E-1,1.500598490E-1,2.031182945E-1
8.671787100E-1,-2.375903875E-1,1.665714234E-1,1.445288062E-1
8.722647520E-1,-3.153546154E-1,2.177040875E-1,6.090560555E-2
8.773430850E-1,-3.909883499E-1,2.912072539E-1,-5.147969350E-2
8.823535540E-1,-4.602304697E-1,3.764283359E-1,-1.963555217E-1
8.874115750E-1,-5.353314877E-1,4.515294135E-1,-3.577429652E-1
8.924699600E-1,-6.173567772E-1,5.063905120E-1,-5.415009260E-1
8.975281890E-1,-7.015125751E-1,5.202388763E-1,-7.391073108E-1
9.025851160E-1,-7.734178305E-1,4.723020196E-1,-9.484315515E-1
9.076537620E-1,-8.629000187E-1,3.684388399E-1,-1.146570563E0
9.127005330E-1,-1.006710649E0,2.155735642E-1,-1.295707464E0
9.177974600E-1,-1.190468550E0,-8.664420806E-3,-1.386787415E0
9.228223040E-1,-1.426424503E0,-2.712518871E-1,-1.448572755E0
9.278776690E-1,-1.694338202E0,-4.928267002E-1,-1.494379163E0
9.329365750E-1,-1.963317275E0,-5.476877689E-1,-1.550305367E0
9.379922000E-1,-2.204066992E0,-4.496835470E-1,-1.605699062E0
9.430501690E-1,-2.426707029E0,-2.430223823E-1,-1.691985488E0
9.481080850E-1,-2.642955542E0,-4.275285453E-2,-1.809164405E0
9.531672000E-1,-2.835768223E0,-7.599157281E-3,-1.906103492E0
9.582236580E-1,-2.963067293E0,-1.982813179E-1,-1.958833933E0
9.633198560E-1,-2.999286175E0,-5.439593792E-1,-1.979606628E0
9.683408980E-1,-2.958273411E0,-9.178668261E-1,-2.007836342E0
9.734062620E-1,-2.891694546E0,-1.230521679E0,-2.037131071E0
9.784585540E-1,-2.832572222E0,-1.441443801E0,-2.062697172E0
9.835145960E-1,-2.795288086E0,-1.530925989E0,-2.068556070E0
9.886086580E-1,-2.780907154E0,-1.457955360E0,-2.045120478E0
9.936669390E-1,-2.768656492E0,-1.214542627E0,-1.994520426E0
9.987258980E-1,-2.740427017E0,-8.401026130E-1,-1.923147678E0
1.003748137E0,-2.699947119E0,-3.831045628E-1,-1.833132982E0
1.008803814E0,-2.655206203E0,7.975244522E-2,-1.728736997E0
1.013901366E0,-2.595018625E0,5.015968084E-1,-1.592916012E0
1.018959491E0,-2.484764099E0,9.085274935E-1,-1.356427431E0
1.024016366E0,-2.336692095E0,1.309066534E0,-1.040576935E0
1.029035794E0,-2.215252161E0,1.688300371E0,-7.268567681E-1
1.034118554E0,-2.176370144E0,2.004683733E0,-4.887703657E-1
1.039159804E0,-2.192348957E0,2.269401550E0,-3.002187312E-1
1.044201002E0,-2.196610212E0,2.477128029E0,-1.223197058E-1
1.049242252E0,-2.182761669E0,2.679527998E0,1.243611798E-2
1.054283450E0,-2.142281532E0,2.656625032E0,4.173086584E-2
1.059324700E0,-2.008591175E0,2.283782721E0,-8.237233013E-2
1.064468085E0,-1.826963544E0,1.728780508E0,-4.142019153E-1
1.069509335E0,-1.686881423E0,1.199877143E0,-7.662714720E-1
1.074550533E0,-1.612312913E0,8.302305937E-1,-1.002760053E0
1.079591783E0,-1.645868778E0,6.603210568E-1,-1.158821106E0
1.084632981E0,-1.783820391E0,7.689778805E-1,-1.271206379E0
1.089674231E0,-1.969176173E0,1.061925530E0,-1.345774889E0
1.094815585E0,-2.144944906E0,1.371384501E0,-1.405429602E0
1.099856835E0,-2.242949009E0,1.573784590E0,-1.477867603E0
1.104898033E0,-2.244546890E0,1.592959285E0,-1.567882299E0
1.109939283E0,-2.168380737E0,1.427843451E0,-1.651505470E0
1.114980481E0,-2.061321497E0,1.195083380E0,-1.700507522E0
1.120021731E0,-1.989416242E0,8.717758656E-1,-1.716486573E0
1.125163814E0,-1.954262495E0,5.191736221E-1,-1.688257098E0
1.130205012E0,-1.936153054E0,2.081167102E-1,-1.641918063E0
1.135246210E0,-1.924967885E0,-1.114623472E-1,-1.594513893E0
1.140287460E0,-1.931359291E0,-4.816414118E-1,-1.533793807E0
1.145328658E0,-1.948403597E0,-8.773868680E-1,-1.469878078E0
1.150369908E0,-1.963317275E0,-1.239043713E0,-1.404896975E0
1.155491366E0,-1.968111038E0,-1.516544819E0,-1.348970652E0
1.160532616E0,-1.957990885E0,-1.717347026E0,-1.292511702E0
1.165573814E0,-1.938816190E0,-1.882995605E0,-1.237650633E0
1.170615064E0,-1.903129935E0,-2.033197641E0,-1.182256937E0
1.175656262E0,-1.861584663E0,-2.163692474E0,-1.116210580E0
1.180697460E0,-1.820039392E0,-2.278208256E0,-1.043239951E0
1.185860689E0,-1.771569848E0,-2.400181055E0,-9.681389332E-1
1.190901939E0,-1.725230932E0,-2.537599802E0,-8.941031694E-1
1.195943137E0,-1.682620287E0,-2.676084280E0,-8.248609900E-1
1.200984387E0,-1.637879372E0,-2.796991587E0,-7.529556751E-1
1.206025585E0,-1.585148692E0,-2.875821114E0,-6.703977585E-1
1.211066835E0,-1.507384419E0,-2.910974979E0,-5.734587908E-1
1.216207616E0,-1.417902470E0,-2.933877945E0,-4.802482724E-1
1.221248866E0,-1.325224400E0,-2.940269709E0,-4.211261570E-1
1.226290064E0,-1.219763398E0,-2.923225403E0,-3.673303425E-1
1.231331314E0,-1.089268565E0,-2.906181097E0,-2.938271761E-1
1.236372512E0,-9.236200452E-1,-2.887006521E0,-2.187260538E-1
1.241413762E0,-7.206873298E-1,-2.863037825E0,-1.532123536E-1
1.246558137E0,-4.836662710E-1,-2.840134859E0,-1.063407585E-1
1.251599335E0,-2.503735423E-1,-2.827884436E0,-8.716601133E-2
1.256640533E0,-3.891873732E-2,-2.796991587E0,-5.361022055E-2
1.261681783E0,1.981023997E-1,-2.693128586E0,-1.944938209E-3
1.266722981E0,4.718751013E-1,-2.556241989E0,4.226349667E-2
1.271764231E0,7.578984499E-1,-2.408170462E0,7.475403696E-2
1.276903294E0,1.043388963E0,-2.231336832E0,9.446141124E-2
1.281944544E0,1.322487950E0,-2.026273489E0,9.446141124E-2
1.286985741E0,1.560574412E0,-1.802035451E0,7.422140986E-2
1.292026991E0,1.733147144E0,-1.536252260E0,4.386139289E-2
1.297068189E0,1.767768145E0,-1.202824712E0,7.109802216E-3
1.302109439E0,1.595728040E0,-7.591425776E-1,-1.792389154E-2
1.307254335E0,1.234071136E0,-2.318371087E-1,1.296875067E-2
1.312295585E0,8.537721634E-1,2.427377850E-1,7.581929862E-2
1.317336783E0,5.799993873E-1,4.493989050E-1,1.152340472E-1
1.322378033E0,4.212750793E-1,4.541925788E-1,1.866067201E-1
1.327419231E0,3.600224257E-1,3.684388399E-1,3.186993599E-1
1.332460481E0,3.616203368E-1,2.011924982E-1,5.051205158E-1
1.337602616E0,3.483045399E-1,-6.299285591E-2,6.686384082E-1
1.342643866E0,2.295276672E-1,-4.448898435E-1,7.171078920E-1
1.347685064E0,-4.830304533E-3,-9.114753008E-1,6.260278821E-1
1.352726314E0,-2.833967209E-1,-1.370603800E0,4.401394129E-1
1.357767512E0,-5.204178095E-1,-1.757294416E0,2.329456657E-1
1.362808762E0,-6.993820667E-1,-2.053437710E0,5.291613191E-2
1.367949179E0,-8.394642472E-1,-2.259566307E0,-1.068733856E-1
1.372990429E0,-9.475884438E-1,-2.394854546E0,-2.565429211E-1
1.378031627E0,-1.012569547E0,-2.496054649E0,-3.763850927E-1
1.383072877E0,-1.034407496E0,-2.565829515E0,-4.498882592E-1
1.388114075E0,-1.008841157E0,-2.595124006E0,-4.823788106E-1
1.393155325E0,-9.337400794E-1,-2.587134600E0,-4.818461835E-1
1.398297616E0,-8.565084338E-1,-2.556774616E0,-4.482903779E-1
1.403338866E0,-8.208221197E-1,-2.463563919E0,-4.088756442E-1
1.408380064E0,-8.298768401E-1,-2.271816730E0,-4.067450762E-1
1.413421314E0,-8.437252641E-1,-1.927203894E0,-4.802482724E-1
1.418462512E0,-7.893968821E-1,-1.368473172E0,-6.139388084E-1
1.423503762E0,-6.349335909E-1,-5.823088288E-1,-7.508251667E-1
1.428683398E0,-4.101631045E-1,3.487314880E-1,-8.616126180E-1
1.433724648E0,-1.395861357E-1,1.202007651E0,-9.292568564E-1
1.438765846E0,2.066245079E-1,1.718660474E0,-9.015600085E-1
1.443807096E0,6.710794568E-1,1.826784611E0,-7.454988360E-1
1.448848294E0,1.224483848E0,1.711203575E0,-4.919661880E-1
1.453889544E0,1.729951382E0,1.696289897E0,-1.851702482E-1
1.458994283E0,2.018105030E0,1.942365766E0,8.647193760E-2
1.464035533E0,1.979223013E0,2.312544823E0,2.318804115E-1
1.469076731E0,1.696395516E0,2.541576385E0,1.887372434E-1
1.474117981E0,1.383740664E0,2.380721569E0,-4.721863940E-2
1.479159179E0,1.124881625E0,1.764999270E0,-3.806461394E-1
1.484200429E0,8.553700447E-1,8.834937811E-1,-6.070145965E-1
1.489339075E0,6.226099133E-1,7.975244522E-2,-5.473598838E-1
1.494380325E0,5.688141584E-1,-3.394287527E-1,-2.203239501E-1
1.499421523E0,7.658878565E-1,-2.648603022E-1,1.956614405E-1
1.504462773E0,1.173883677E0,1.447335333E-1,5.610468388E-1
1.509503971E0,1.744865060E0,6.656473875E-1,7.996658683E-1
1.514545221E0,2.396273613E0,1.194550753E0,9.450743198E-1
1.519690221E0,3.044486284E0,1.727715135E0,1.026566982E0
1.524731471E0,3.635174990E0,2.240106821E0,1.087286949E0
1.529772669E0,4.131055355E0,2.685387135E0,1.168779731E0
1.534813919E0,4.508158207E0,3.006031513E0,1.254000783E0
1.539855116E0,4.728135586E0,3.213225126E0,1.330699682E0
1.544896366E0,4.789387703E0,3.329871416E0,1.381832361E0
1.550037825E0,4.698307991E0,3.392189503E0,1.385028243E0
1.555079023E0,4.445840359E0,3.406037807E0,1.332297564E0
1.560120221E0,4.013875961E0,3.321349382E0,1.212455511E0
1.565161471E0,3.466330767E0,3.086991310E0,1.035089135E0
1.570202669E0,2.870315790E0,2.743976593E0,8.657122254E-1
1.575243919E0,2.305193424E0,2.402027130E0,7.735669017E-1
1.580386679E0,1.873229265E0,2.073925734E0,7.927416563E-1
1.585427877E0,1.597326040E0,1.720258355E0,9.136490822E-1
1.590469075E0,1.456178665E0,1.329306602E0,1.120842814E0
1.595510325E0,1.433808088E0,8.600580096E-1,1.363190293E0
1.600551523E0,1.513170242E0,3.045230508E-1,1.573579788E0
1.605592773E0,1.647393346E0,-2.494139671E-1,1.737630367E0
1.610735377E0,1.791203856E0,-6.899004579E-1,1.831906199E0
1.615776627E0,1.913176537E0,-9.556837082E-1,1.829775691E0
1.620817825E0,1.981353402E0,-1.070199370E0,1.713129282E0
1.625859075E0,1.979223013E0,-1.054220557E0,1.498478770E0
1.630900273E0,1.923829317E0,-9.402373433E-1,1.238554478E0
1.635941523E0,1.840206146E0,-7.735236287E-1,9.605206251E-1
1.641082825E0,1.756050229E0,-5.434266925E-1,7.037920952E-1
1.646124075E0,1.685742855E0,-2.531424165E-1,5.237626433E-1
1.651165273E0,1.659643888E0,3.288085759E-2,4.348130822E-1
1.656206523E0,1.668166041E0,2.592493594E-1,4.076488614E-1
1.661247721E0,1.689471245E0,3.961357176E-1,3.852783442E-1
1.666288971E0,1.712907076E0,4.675083756E-1,3.629077971E-1
1.671430846E0,1.721429229E0,4.999989569E-1,3.730278015E-1
1.676472096E0,1.718766093E0,5.463378429E-1,4.001920223E-1
1.681513294E0,1.689471245E0,6.161125898E-1,4.140404463E-1
1.686554544E0,1.619163871E0,7.050621510E-1,3.927351832E-1
1.691595741E0,1.506245971E0,8.190453053E-1,3.463962078E-1
1.696636991E0,1.383740664E0,9.324958920E-1,3.027203977E-1
1.701782669E0,1.270290136E0,1.010792732E0,2.926004231E-1
1.706823919E0,1.174949050E0,1.039022326E0,3.021877706E-1
1.711865116E0,1.137132168E0,1.057664394E0,3.112424910E-1
1.716906366E0,1.186134338E0,1.067784309E0,3.192320168E-1
1.721947564E0,1.283073306E0,1.113590717E0,3.714299202E-1
1.726988814E0,1.400252223E0,1.199344397E0,4.534551799E-1
1.732128919E0,1.517431259E0,1.235030770E0,5.195015073E-1
1.737170169E0,1.625555515E0,1.233965516E0,5.828847289E-1
1.742211366E0,1.713439703E0,1.221182346E0,6.499963403E-1
1.747252616E0,1.754985094E0,1.170049787E0,7.224342823E-1
1.752293814E0,1.748060822E0,1.073110819E0,7.975353599E-1
1.757335064E0,1.693199754E0,9.468769431E-1,8.752995729E-1
1.762480846E0,1.606380820E0,8.041316271E-1,9.599880576E-1
1.767522096E0,1.489201665E0,6.517989635E-1,1.045741677E0
1.772563294E0,1.349119544E0,4.893462658E-1,1.120310187E0
1.777604544E0,1.208504796E0,3.252956867E-1,1.159724951E0
1.782645741E0,1.080140591E0,1.761588007E-1,1.170910120E0
1.787686939E0,9.810711145E-1,4.406612366E-2,1.166649222E0
1.792796575E0,9.091657996E-1,-5.766654015E-2,1.160790205E0
1.797837773E0,8.617615700E-1,-1.077339277E-1,1.151202798E0
1.802879023E0,8.324668407E-1,-7.897181064E-2,1.125636458E0
1.807920221E0,8.084983826E-1,2.702190913E-2,1.078764915E0
1.812961471E0,7.808015943E-1,1.793545932E-1,1.002598524E0
1.818002669E0,7.504416108E-1,3.423399031E-1,9.029964209E-1
1.823174700E0,7.195489407E-1,4.653778374E-1,8.049921989E-1
1.828215950E0,6.955804825E-1,5.292936563E-1,7.256300449E-1
1.833257148E0,6.913194656E-1,5.463378429E-1,6.585184336E-1
1.838298398E0,7.190163136E-1,5.175757408E-1,5.956678987E-1
1.843339596E0,7.861279249E-1,4.509967566E-1,5.189689398E-1
1.848380846E0,8.899911046E-1,3.615146577E-1,4.348130822E-1
1.853522148E0,9.986479282E-1,2.613798678E-1,3.474614620E-1
1.858563398E0,1.066292167E0,2.059861869E-1,2.686319649E-1
1.863604596E0,1.075346828E0,2.651083171E-1,2.041835636E-1
1.868645846E0,1.018887877E0,4.051904380E-1,1.498551220E-1
1.873687044E0,8.990458250E-1,5.260978341E-1,1.226908937E-1
1.878728294E0,7.259404659E-1,5.559252501E-1,1.173645779E-1
1.883881731E0,5.251383781E-1,4.786936343E-1,1.301477402E-1
1.888922929E0,3.147487342E-1,3.428725302E-1,1.450614333E-1
1.893964127E0,1.267297417E-1,2.182367146E-1,1.493224949E-1
1.899005377E0,-2.986399643E-2,1.426030099E-1,1.434635371E-1
1.904046575E0,-1.790008992E-1,1.069166735E-1,1.317456514E-1
1.909087825E0,-3.041693866E-1,1.079819351E-1,1.013856307E-1
1.914217564E0,-3.856620193E-1,1.324830055E-1,2.788244002E-2
1.919258814E0,-4.272073209E-1,1.692345887E-1,-8.077443391E-2
1.924300012E0,-4.580999613E-1,2.246282995E-1,-2.197913080E-1
1.929341262E0,-5.118957162E-1,3.023925126E-1,-3.790482283E-1
1.934382460E0,-6.098999381E-1,3.684388399E-1,-5.383051038E-1
1.939423710E0,-7.286768556E-1,3.987988532E-1,-6.885072589E-1
1.944567721E0,-8.383989334E-1,3.956030905E-1,-8.046209812E-1
1.949608971E0,-9.348053336E-1,3.567209542E-1,-9.063536525E-1
1.954650169E0,-1.058375955E0,2.800219655E-1,-1.012347341E0
1.959691419E0,-1.209110618E0,1.468640566E-1,-1.131656885E0
1.964732616E0,-1.410978079E0,-2.411074005E-2,-1.260553837E0
1.969773866E0,-1.662380338E0,-1.087991968E-1,-1.371341228E0
1.974918554E0,-1.944142580E0,-5.393812060E-2,-1.448572755E0
1.979959804E0,-2.219513178E0,5.791454762E-2,-1.506629586E0
1.985001002E0,-2.471447945E0,1.846809089E-1,-1.566284418E0
1.990042252E0,-2.689294577E0,2.459335476E-1,-1.636059165E0
1.995083450E0,-2.853344917E0,1.420703679E-1,-1.726073980E0
2.000124700E0,-2.951349258E0,-1.450181454E-1,-1.836328745E0
2.005263241E0,-2.975850344E0,-5.514162183E-1,-1.951377153E0
2.010304491E0,-2.930043936E0,-9.887068272E-1,-2.057903528E0
2.015345689E0,-2.846953392E0,-1.367940664E0,-2.134602547E0
2.020386939E0,-2.772385120E0,-1.635321736E0,-2.156440496E0
2.025428137E0,-2.744155645E0,-1.767414331E0,-2.114362478E0
2.030469387E0,-2.768124104E0,-1.767947078E0,-2.028608799E0
2.035617616E0,-2.820854664E0,-1.599635482E0,-1.918886542E0
2.040672304E0,-2.869856834E0,-1.263544798E0,-1.786793947E0
2.045726991E0,-2.904477596E0,-8.166667819E-1,-1.649374962E0
2.050781627E0,-2.903945208E0,-2.563381791E-1,-1.517282248E0
2.055836314E0,-2.876780748E0,3.577862382E-1,-1.408092737E0
2.060891002E0,-2.831507206E0,9.522032738E-1,-1.307958007E0
2.065967825E0,-2.736166000E0,1.465127707E0,-1.156690598E0
2.071022512E0,-2.579572439E0,1.916799426E0,-9.233978987E-1
2.076077200E0,-2.394749165E0,2.301892281E0,-6.586798429E-1
2.081131835E0,-2.217382669E0,2.554892302E0,-4.253872037E-1
2.086186523E0,-2.099671125E0,2.592176437E0,-2.799787223E-1
2.091241210E0,-2.101269007E0,2.431854486E0,-2.240523696E-1
2.096314544E0,-2.119911194E0,2.255020618E0,-1.532123536E-1
2.101369231E0,-1.999536157E0,2.028651953E0,-6.905653328E-2
2.106423919E0,-1.741209745E0,1.662734032E0,-1.185912937E-1
2.111478554E0,-1.520700216E0,1.288826585E0,-3.641345501E-1
2.116533241E0,-1.462643385E0,1.013988614E0,-6.448314786E-1
2.121587929E0,-1.514308691E0,9.053316712E-1,-8.871788979E-1
2.126663346E0,-1.624563575E0,9.953464866E-1,-1.102362156E0
2.131718033E0,-1.787548780E0,1.188159227E0,-1.269608498E0
2.136772721E0,-1.969708800E0,1.369786501E0,-1.394244432E0
2.141827356E0,-2.097540617E0,1.531174064E0,-1.500770688E0
2.146882044E0,-2.120443583E0,1.657940388E0,-1.593981147E0
2.151936731E0,-2.047473192E0,1.656342506E0,-1.649374962E0
2.157011054E0,-1.897803545E0,1.532239318E0,-1.690920234E0
2.162065741E0,-1.729491830E0,1.276043415E0,-1.743118167E0
2.167120429E0,-1.609649897E0,9.617906213E-1,-1.759629726E0
2.172175064E0,-1.542005539E0,6.491358280E-1,-1.736194015E0
2.177229752E0,-1.509515047E0,3.125125170E-1,-1.686126590E0
2.182284439E0,-1.495133996E0,-7.098233700E-2,-1.650972843E0
2.187361158E0,-1.499927640E0,-4.507487714E-1,-1.625939250E0
2.192415846E0,-1.536146641E0,-8.193299770E-1,-1.580665350E0
2.197470533E0,-1.586746693E0,-1.174595237E0,-1.506097078E0
2.202525169E0,-1.624563575E0,-1.506424904E0,-1.423539042E0
2.207579856E0,-1.640542388E0,-1.780197620E0,-1.344709635E0
2.212634544E0,-1.632020354E0,-1.997511268E0,-1.278130651E0
2.217707356E0,-1.626694083E0,-2.206303120E0,-1.219541073E0
2.222762044E0,-1.639477134E0,-2.418290377E0,-1.160418987E0
2.227816731E0,-1.665043473E0,-2.614831686E0,-1.103960037E0
2.232871419E0,-1.689011931E0,-2.785806417E0,-1.050164223E0
2.237926054E0,-1.705523491E0,-2.924290657E0,-9.947705269E-1
2.242980741E0,-1.704990864E0,-3.018566370E0,-9.335178733E-1
2.248042408E0,-1.688479304E0,-3.091004133E0,-8.451009989E-1
2.253097096E0,-1.650129795E0,-3.146398067E0,-7.396398783E-1
2.258151731E0,-1.596866608E0,-3.157050610E0,-6.528208852E-1
2.263206419E0,-1.518037200E0,-3.114972830E0,-5.670672059E-1
2.268261106E0,-1.408847570E0,-3.049458981E0,-4.642693102E-1
2.273315794E0,-1.268232822E0,-2.964237928E0,-3.476229906E-1
2.278460846E0,-1.082877040E0,-2.868896723E0,-2.331071049E-1
2.283515533E0,-8.687589765E-1,-2.808176756E0,-1.345702261E-1
2.288570169E0,-6.455862522E-1,-2.793795824E0,-6.000179797E-2
2.293624856E0,-4.138915241E-1,-2.787404060E0,-1.952178590E-2
2.298679544E0,-1.651524603E-1,-2.746924162E0,7.642433979E-3
2.303734231E0,8.092340827E-2,-2.675018787E0,6.197087094E-2
2.308750533E0,3.158139884E-1,-2.607907295E0,1.423982829E-1
2.313805221E0,5.400520563E-1,-2.536001921E0,2.159014642E-1
2.318859908E0,7.882584333E-1,-2.390593529E0,2.627730072E-1
2.323914596E0,1.044986844E0,-2.208433390E0,2.766214311E-1
2.328969231E0,1.279877543E0,-2.018816710E0,2.590445876E-1
2.334023919E0,1.472157478E0,-1.832395434E0,2.281519920E-1
2.339065794E0,1.578683853E0,-1.599635482E0,2.185646147E-1
2.344120429E0,1.523822784E0,-1.209216356E0,1.945961863E-1
2.349175116E0,1.296389103E0,-6.952267289E-1,1.493224949E-1
2.354229804E0,9.975826740E-1,-1.604644656E-1,1.232235283E-1
2.359284491E0,7.616268396E-1,1.873440742E-1,1.338761747E-1
2.364339179E0,6.034352183E-1,2.645756602E-1,1.876719743E-1
2.369451158E0,5.134204030E-1,2.219651341E-1,2.894046009E-1
2.374505846E0,4.676140249E-1,8.401350677E-2,4.422699511E-1
2.379560533E0,4.393845797E-1,-1.807044744E-1,6.207016110E-1
2.384615169E0,3.706750870E-1,-5.796456933E-1,7.464027405E-1
2.389669856E0,2.066245079E-1,-1.089374185E0,7.698385119E-1
2.394724544E0,-2.613557316E-2,-1.569275498E0,6.867479086E-1
2.399799491E0,-2.418514341E-1,-1.936791301E0,5.216320753E-1
2.404854179E0,-3.861946464E-1,-2.214292526E0,3.133730590E-1
2.409908866E0,-4.730136096E-1,-2.406039953E0,1.008529887E-1
2.414963502E0,-5.497125387E-1,-2.536534786E0,-9.462286532E-2
2.420018189E0,-6.130957007E-1,-2.639332533E0,-2.480207980E-1
2.425072877E0,-6.423904300E-1,-2.709640026E0,-3.625366390E-1
2.430146314E0,-6.290746331E-1,-2.733608484E0,-4.376377463E-1
2.435201002E0,-5.912578106E-1,-2.678747416E0,-4.999556243E-1
2.440255689E0,-5.763441324E-1,-2.550915718E0,-5.548167229E-1
2.445310325E0,-6.178894043E-1,-2.345852613E0,-5.867745876E-1
2.450365012E0,-6.812725663E-1,-2.027871370E0,-6.096777916E-1
2.455419700E0,-7.020452619E-1,-1.564481735E0,-6.586798429E-1
2.460494544E0,-6.216177940E-1,-9.008226395E-1,-7.146061659E-1
2.465549231E0,-4.085651934E-1,-3.338103183E-3,-7.742609978E-1
2.470603919E0,-1.198787615E-1,9.687148333E-1,-8.594820499E-1
2.475658554E0,1.853192300E-1,1.779380441E0,-9.329852462E-1
2.480713241E0,5.427151918E-1,2.270999432E0,-9.026252627E-1
2.485767929E0,1.023681521E0,2.379123688E0,-7.295199037E-1
2.490842356E0,1.545128107E0,2.248096466E0,-4.024840295E-1
2.495897044E0,1.907850266E0,2.149026871E0,6.044538692E-3
2.500951731E0,1.949928284E0,2.251292229E0,3.469288349E-1
2.506006366E0,1.653252363E0,2.479258537E0,4.838151932E-1
2.511061054E0,1.132871151E0,2.569273472E0,3.506572545E-1
2.516115741E0,6.226099133E-1,2.218801737E0,-1.944938209E-3
2.521190741E0,2.572245002E-1,1.366058111E0,-3.625366390E-1
2.526245429E0,4.896549881E-2,3.929399252E-1,-4.877051413E-1
2.531300116E0,4.576971009E-2,-2.829698026E-1,-2.986208498E-1
2.536354752E0,2.934434712E-1,-4.848372340E-1,9.978772700E-2
2.541409439E0,7.509741783E-1,-2.994813621E-1,5.242952108E-1
2.546464127E0,1.332607985E0,4.992507398E-2,8.444069028E-1
2.551541523E0,1.987745047E0,4.717694223E-1,1.034023762E0
2.556596210E0,2.647142887E0,9.527359009E-1,1.115516543E0
2.561650898E0,3.246886492E0,1.460334063E0,1.156529188E0
2.566705533E0,3.747027636E0,1.955681562E0,1.213520765E0
2.571760221E0,4.116141319E0,2.414277554E0,1.298209190E0
2.576814908E0,4.339847088E0,2.781793356E0,1.403137565E0
2.581886471E0,4.427731037E0,3.029999733E0,1.505402923E0
2.586941158E0,4.398968697E0,3.172212601E0,1.574112415E0
2.591995846E0,4.256755829E0,3.218018770E0,1.590623975E0
2.597050481E0,3.979787827E0,3.157831430E0,1.544817686E0
2.602105169E0,3.579248667E0,2.916016579E0,1.402072430E0
2.607159856E0,3.107336760E0,2.517608166E0,1.199672341E0
2.612217148E0,2.593879700E0,2.097361565E0,9.908806682E-1
2.617271835E0,2.105989218E0,1.738900423E0,8.348196149E-1
2.622326523E0,1.681481838E0,1.457670808E0,8.028616309E-1
2.627381158E0,1.362435341E0,1.163658142E0,9.061921835E-1
2.632435846E0,1.206906915E0,7.641842365E-1,1.083558559E0
2.637490533E0,1.222353220E0,3.189041018E-1,1.328036547E0
2.642586210E0,1.383740664E0,-1.620623618E-1,1.576775670E0
2.647640898E0,1.628751278E0,-6.206583381E-1,1.725912452E0
2.652695585E0,1.875359774E0,-9.610100389E-1,1.720586181E0
2.657750221E0,2.044203997E0,-1.153290033E0,1.558666110E0
2.662804908E0,2.091608047E0,-1.194835305E0,1.312590241E0
2.667859596E0,2.034616470E0,-1.106418371E0,1.016446948E0
2.672931991E0,1.950460911E0,-9.024205208E-1,7.261626720E-1
2.677986679E0,1.873761892E0,-6.078751683E-1,4.752930999E-1
2.683041366E0,1.821564078E0,-3.064055741E-1,2.867414653E-1
2.688096002E0,1.798128247E0,-2.570863627E-2,1.828782856E-1
2.693150689E0,1.806117654E0,2.714998722E-1,1.466593295E-1
2.698205377E0,1.847662926E0,5.340873599E-1,1.333435476E-1
2.703274648E0,1.889208198E0,7.205083966E-1,1.088424698E-1
2.708329335E0,1.920100927E0,8.414158225E-1,9.339614958E-2
2.713384023E0,1.923296690E0,9.165169001E-1,1.003203616E-1
2.718438658E0,1.873761892E0,9.532684684E-1,1.168319508E-1
2.723493346E0,1.759778738E0,9.868243337E-1,1.285498440E-1
2.728548033E0,1.596793413E0,1.037956953E0,1.450614333E-1
2.733621835E0,1.414100647E0,1.096013904E0,1.727582961E-1
2.738676523E0,1.259637475E0,1.145016074E0,1.961940825E-1
2.743731210E0,1.187199473E0,1.232900262E0,2.350762039E-1
2.748785846E0,1.205841660E0,1.334100246E0,3.053835630E-1
2.753840533E0,1.294258475E0,1.390559316E0,3.799520135E-1
2.758895221E0,1.394925952E0,1.408668756E0,4.465309978E-1
2.763963346E0,1.487071276E0,1.394820213E0,5.099142194E-1
2.769018033E0,1.573890209E0,1.322914958E0,5.738300085E-1
2.774072721E0,1.647925973E0,1.190822363E0,6.350826621E-1
2.779127356E0,1.692134500E0,1.005999088E0,7.043247819E-1
2.784182044E0,1.700123906E0,7.956094742E-1,7.943395376E-1
2.789236731E0,1.669763923E0,5.916115642E-1,8.928763866E-1
2.794324231E0,1.588271260E0,4.083862305E-1,9.780974984E-1
2.799378919E0,1.466298580E0,2.555209398E-1,1.035621762E0
2.804433606E0,1.333140731E0,1.319503635E-1,1.071308136E0
2.809488241E0,1.209037423E0,2.382611670E-2,1.102733254E0
2.814542929E0,1.095054269E0,-6.192759424E-2,1.135756493E0
2.819597616E0,9.847995639E-1,-1.210497245E-1,1.170910120E0
2.824672200E0,8.718816042E-1,-1.572686732E-1,1.198074460E0
2.829726887E0,7.754752636E-1,-1.641928852E-1,1.212988019E0
2.834781575E0,7.078310251E-1,-1.391592026E-1,1.203400731E0
2.839836210E0,6.630899310E-1,-5.606864393E-2,1.169312239E0
2.844890898E0,6.449804902E-1,8.348087221E-2,1.116581798E0
2.849945585E0,6.561657786E-1,2.438030392E-1,1.038284898E0
2.855021158E0,6.870583892E-1,3.902767599E-1,9.514659047E-1
2.860075846E0,7.349952459E-1,5.037273169E-1,8.758322001E-1
2.865130533E0,7.962478995E-1,5.559252501E-1,8.049921989E-1
2.870185169E0,8.772079349E-1,5.319567919E-1,7.149774432E-1
2.875239856E0,9.949195385E-1,4.547251761E-1,5.993962884E-1
2.880294544E0,1.123816371E0,3.524599075E-1,4.657057226E-1
2.885368502E0,1.213298559E0,2.581840754E-1,3.373414576E-1
2.890423189E0,1.249517560E0,2.267588228E-1,2.388046235E-1
2.895477877E0,1.229277372E0,2.672388256E-1,1.690298766E-1
2.900532512E0,1.141925812E0,3.732325435E-1,1.258866936E-1
2.905587200E0,9.901258349E-1,5.074557662E-1,1.093750969E-1
2.910641887E0,7.946500182E-1,5.921441913E-1,1.168319508E-1
2.915717721E0,5.842604637E-1,5.740347505E-1,1.413330138E-1
2.920772408E0,3.946434855E-1,4.707041681E-1,1.764867008E-1
2.925827096E0,2.449739873E-1,3.199693561E-1,2.127056718E-1
2.930881731E0,1.347192228E-1,1.383419484E-1,2.292172462E-1
2.935936419E0,4.843286797E-2,-2.464337274E-2,2.217604220E-1
2.940991106E0,-2.400504611E-2,-1.098644584E-1,1.945961863E-1
2.946065064E0,-8.525769413E-2,-1.205170900E-1,1.418656409E-1
2.951119752E0,-1.342598200E-1,-7.258023322E-2,5.770981684E-2
2.956174439E0,-1.864577383E-1,2.276085503E-2,-5.787127092E-2
2.961229075E0,-2.519714534E-1,1.655061692E-1,-2.038123757E-1
2.966283762E0,-3.371925354E-1,3.370135725E-1,-3.694608808E-1
2.971338450E0,-4.389252067E-1,4.882810116E-1,-5.393703580E-1
2.976414231E0,-5.481146574E-1,5.820241570E-1,-7.092798948E-1
2.981468919E0,-6.743484139E-1,6.123842001E-1,-8.759936690E-1
2.986523606E0,-8.437252641E-1,5.751000047E-1,-1.041109443E0
2.991578241E0,-1.054647565E0,4.350178242E-1,-1.188115835E0
2.996632929E0,-1.263971806E0,1.532556415E-1,-1.284522176E0
3.001687616E0,-1.469035029E0,-1.860307902E-1,-1.343644261E0
3.006762929E0,-1.690077186E0,-4.651298523E-1,-1.381461143E0
3.011817616E0,-1.935087800E0,-5.626014471E-1,-1.426202297E0
3.016872304E0,-2.181696415E0,-4.049424529E-1,-1.497574925E0
3.021926939E0,-2.408065081E0,-7.843917608E-2,-1.600372791E0
3.026981627E0,-2.624313354E0,2.363461852E-1,-1.722345471E0
3.032036314E0,-2.829376459E0,3.444704413E-1,-1.827806592E0
3.037111419E0,-2.970524073E0,1.617777497E-1,-1.893320322E0
3.042168762E0,-3.017928362E0,-2.099992186E-1,-1.936463475E0
3.047226158E0,-2.975850344E0,-6.222562194E-1,-1.975345612E0
3.052283502E0,-2.865062952E0,-9.998921752E-1,-2.017423630E0
3.057340898E0,-2.744688272E0,-1.278458476E0,-2.037663460E0
3.062398241E0,-2.656271219E0,-1.428660631E0,-2.031272173E0
3.067461471E0,-2.613128185E0,-1.452096343E0,-1.993455052E0
3.072518814E0,-2.618987083E0,-1.368473172E0,-1.932735085E0
3.077576210E0,-2.657336473E0,-1.186313152E0,-1.868819237E0
3.082633554E0,-2.701545000E0,-9.210626483E-1,-1.805968761E0
3.087690950E0,-2.744155645E0,-5.972225070E-1,-1.737791896E0
3.092748294E0,-2.781439781E0,-2.142602652E-1,-1.628069639E0
3.097806627E0,-2.814462900E0,1.708324850E-1,-1.468280196E0
3.102863971E0,-2.820321798E0,5.005314946E-1,-1.266945362E0
3.107921366E0,-2.785168171E0,8.227737546E-1,-1.014477849E0
3.112978710E0,-2.707936525E0,1.240889668E0,-7.327156663E-1
3.118036106E0,-2.604073286E0,1.726649880E0,-4.658672214E-1
3.123093502E0,-2.484231234E0,2.201757431E0,-2.320418507E-1
3.128157564E0,-2.321778536E0,2.569805861E0,-1.685862802E-2
3.133214908E0,-2.106595278E0,2.794043779E0,1.168319508E-1
3.138272304E0,-1.880759358E0,2.761553288E0,6.623192877E-2
3.143329648E0,-1.636813998E0,2.240639687E0,-2.389660627E-1
3.148387044E0,-1.479687691E0,1.595089912E0,-6.794524789E-1
3.153444387E0,-1.423228741E0,1.127971768E0,-1.057621121E0
3.158504231E0,-1.445599198E0,9.127885103E-1,-1.321273804E0
3.163561575E0,-1.621367693E0,9.138537645E-1,-1.481595993E0
3.168618971E0,-1.899934173E0,1.028902292E0,-1.556164384E0
3.173676314E0,-2.175304651E0,1.164723277E0,-1.573741198E0
3.178733710E0,-2.353736401E0,1.345818162E0,-1.557762265E0
3.183791054E0,-2.410195351E0,1.463529825E0,-1.539120197E0
3.188852460E0,-2.376639605E0,1.402809739E0,-1.580132842E0
3.193909856E0,-2.285027027E0,1.202007651E0,-1.639787555E0
3.198967200E0,-2.182229042E0,9.522032738E-1,-1.688257098E0
3.204024544E0,-2.098605871E0,6.800284386E-1,-1.709562421E0
3.209081939E0,-2.035222769E0,4.094515145E-1,-1.701572895E0
3.214139283E0,-1.977698326E0,1.362114251E-1,-1.693050742E0
3.219201835E0,-1.929761529E0,-2.105318457E-1,-1.697311759E0
3.224259179E0,-1.901532054E0,-5.887004137E-1,-1.677071810E0
3.229316575E0,-1.893542528E0,-9.594120979E-1,-1.624873877E0
3.234373919E0,-1.883422494E0,-1.338645816E0,-1.555099130E0
3.239431314E0,-1.874900460E0,-1.704563856E0,-1.469345450E0
3.244488658E0,-1.860519409E0,-2.007098675E0,-1.385722280E0
3.249548294E0,-1.842409849E0,-2.231869221E0,-1.306892633E0
3.254605637E0,-1.824833035E0,-2.399648190E0,-1.231791615E0
3.259663033E0,-1.819506645E0,-2.536001921E0,-1.154027462E0
3.264720377E0,-1.821104527E0,-2.637202024E0,-1.067741036E0
3.269777773E0,-1.818441510E0,-2.686204195E0,-9.835852385E-1
3.274835116E0,-1.813115239E0,-2.717096806E0,-9.068862796E-1
3.279902721E0,-1.784353018E0,-2.760240078E0,-8.349810243E-1
3.284960064E0,-1.739079237E0,-2.828416824E0,-7.955662012E-1
3.290017460E0,-1.681022406E0,-2.901920080E0,-7.582820058E-1
3.295074804E0,-1.600062490E0,-2.963172674E0,-7.002251744E-1
3.300132200E0,-1.503123522E0,-3.000989676E0,-6.075472236E-1
3.305189544E0,-1.388607621E0,-3.022827387E0,-4.994229972E-1
3.310238398E0,-1.244264483E0,-3.021762371E0,-3.891682327E-1
3.315295741E0,-1.063702226E0,-2.996195793E0,-2.847724259E-1
3.320353137E0,-8.533126116E-1,-2.984477997E0,-1.825070828E-1
3.325410481E0,-6.258789301E-1,-3.018566370E0,-9.728601575E-2
3.330467877E0,-3.947167695E-1,-3.087808609E0,-3.390284255E-2
3.335525273E0,-1.523693055E-1,-3.146930695E0,1.250852481E-3
3.340595377E0,1.224686801E-1,-3.107516050E0,3.746981174E-2
3.345652721E0,4.132856131E-1,-2.996195793E0,9.818983823E-2
3.350710116E0,7.152879238E-1,-2.857178926E0,1.653014421E-1
3.355767512E0,1.021018386E0,-2.708042145E0,2.201625109E-1
3.360824856E0,1.326749086E0,-2.561568499E0,2.590445876E-1
3.365882252E0,1.617565989E0,-2.409235716E0,2.936656475E-1
3.370931262E0,1.863641858E0,-2.217488289E0,2.995246053E-1
3.375988606E0,2.043138504E0,-1.959161758E0,2.712951303E-1
3.381046002E0,2.087347031E0,-1.577797532E0,2.260214686E-1
3.386103346E0,1.917437673E0,-1.011077285E0,1.818130314E-1
3.391160741E0,1.591999650E0,-3.410266340E-1,1.637035459E-1
3.396218137E0,1.269757509E0,2.187693417E-1,1.791498661E-1
3.401278919E0,1.001843691E0,5.452725887E-1,2.473267317E-1
3.406336262E0,7.440499663E-1,6.081231833E-1,3.762235940E-1
3.411393658E0,5.246056914E-1,4.744325876E-1,5.860804915E-1
3.416451054E0,3.802624345E-1,1.543209106E-1,8.289605975E-1
3.421508398E0,2.487024218E-1,-3.751150966E-1,9.796953797E-1
3.426565794E0,4.523707926E-2,-1.001489997E0,9.370848536E-1
3.431628189E0,-2.093608975E-1,-1.544241786E0,7.219015956E-1
3.436685585E0,-3.979125321E-1,-1.962890267E0,4.465309978E-1
3.441742981E0,-5.039062500E-1,-2.294719696E0,1.876719743E-1
3.446800273E0,-5.827357173E-1,-2.550383091E0,-4.295758158E-2
3.451857669E0,-6.487820745E-1,-2.728814840E0,-2.416292131E-1
3.456915064E0,-6.754136682E-1,-2.818829298E0,-4.030166864E-1
3.461990221E0,-6.844683886E-1,-2.852918148E0,-5.063471794E-1
3.467047564E0,-6.764788628E-1,-2.803915739E0,-5.707956553E-1
3.472104960E0,-6.919252276E-1,-2.664898872E0,-6.283198595E-1
3.477162304E0,-7.595694661E-1,-2.437997818E0,-6.815830469E-1
3.482219700E0,-8.373336792E-1,-2.129604101E0,-7.167367339E-1
3.487277044E0,-8.421273828E-1,-1.680595398E0,-7.423030734E-1
3.492339127E0,-6.961863041E-1,-9.737931490E-1,-7.806525826E-1
3.497396471E0,-3.792704642E-1,6.781899370E-3,-8.413725495E-1
3.502453866E0,1.967075653E-2,1.016119123E0,-9.313873053E-1
3.507511210E0,4.021003246E-1,1.810805678E0,-1.002760053E0
3.512568606E0,7.946500182E-1,2.309881687E0,-9.692041874E-1
3.517625950E0,1.258039594E0,2.470203876E0,-7.385746241E-1
3.522682981E0,1.709711313E0,2.416940689E0,-3.295134902E-1
3.527740325E0,1.986679912E0,2.472334385E0,1.264193207E-1
3.532797721E0,1.960048318E0,2.780195475E0,5.077836514E-1
3.537855064E0,1.648991227E0,3.088056564E0,6.830195189E-1
3.542912460E0,1.099847913E0,3.057163954E0,5.562531352E-1
3.547969804E0,5.160835981E-1,2.504824877E0,1.546488106E-1
3.553035116E0,2.044939846E-1,1.421451807E0,-3.220566213E-1
3.558092460E0,1.565571278E-1,1.905398518E-1,-6.176671982E-1
3.563149856E0,2.604202926E-1,-5.913636088E-1,-5.777198672E-1
3.568207200E0,5.022351742E-1,-7.905678749E-1,-2.964903116E-1
3.573264596E0,8.766753078E-1,-6.451593637E-1,4.865507782E-2
3.578321939E0,1.343793273E0,-3.207866549E-1,3.570488393E-1
3.583383971E0,1.861511350E0,1.580493301E-1,5.956678987E-1
3.588441314E0,2.400534630E0,7.647168636E-1,7.474679947E-1
3.593498710E0,2.911328316E0,1.439028740E0,8.539943099E-1
3.598556054E0,3.355010748E0,2.084045887E0,9.749016762E-1
3.603613450E0,3.712406635E0,2.610285997E0,1.121908069E0
3.608670794E0,3.974461317E0,3.002835512E0,1.265718579E0
3.613732616E0,4.140642166E0,3.279804230E0,1.372244954E0
3.618789960E0,4.199764729E0,3.441724062E0,1.457466125E0
3.623847356E0,4.171535492E0,3.484334707E0,1.507000804E0
3.628904700E0,4.051160336E0,3.420951605E0,1.501674533E0
3.633962096E0,3.815737247E0,3.215888262E0,1.427106142E0
3.639019439E0,3.506810665E0,2.830795527E0,1.293415546E0
3.644082773E0,3.155273914E0,2.367405891E0,1.132028103E0
3.649140169E0,2.777637959E0,1.938104630E0,9.946090579E-1
3.654197512E0,2.413850307E0,1.597220421E0,9.488027692E-1
3.659254856E0,2.091075659E0,1.314925551E0,1.004729033E0
3.664312252E0,1.831683993E0,1.010260224E0,1.137887001E0
3.669369596E0,1.677220702E0,6.203736663E-1,1.330699682E0
3.674427877E0,1.642067075E0,1.724303812E-1,1.567720890E0
3.679485221E0,1.708113432E0,-2.872308493E-1,1.764794588E0
3.684542616E0,1.817835450E0,-6.813783646E-1,1.844689369E0
3.689599960E0,1.913176537E0,-9.530205131E-1,1.770120978E0
3.694657356E0,1.952058792E0,-1.103755355E0,1.587428212E0
3.699714700E0,1.896132350E0,-1.149029016E0,1.341352344E0
3.704776366E0,1.789605975E0,-1.094700456E0,1.055329084E0
3.709833710E0,1.690536499E0,-9.487594366E-1,7.687731981E-1
3.714891106E0,1.636208057E0,-6.957594156E-1,5.413394570E-1
3.719948450E0,1.630881786E0,-3.926919401E-1,3.927351832E-1
3.725005846E0,1.655915499E0,-9.175497293E-2,3.101772666E-1
3.730063189E0,1.694797635E0,1.985293478E-1,2.643709183E-1
3.735123762E0,1.739538670E0,4.435399175E-1,2.313477844E-1
3.740181106E0,1.790138721E0,6.198410392E-1,2.041835636E-1
3.745238502E0,1.831683993E0,7.508684397E-1,1.860740781E-1
3.750295846E0,1.832216620E0,8.744390011E-1,1.519856453E-1
3.755353241E0,1.761376500E0,1.006531715E0,1.029835194E-1
3.760410585E0,1.637273312E0,1.127439141E0,5.557928979E-2
3.765472773E0,1.492397547E0,1.220117092E0,4.492665455E-2
3.770530116E0,1.359772325E0,1.269651771E0,7.848246396E-2
3.775587512E0,1.278279543E0,1.290424466E0,1.296151280E-1
3.780644856E0,1.267094254E0,1.279771805E0,1.780845970E-1
3.785702252E0,1.302248001E0,1.268053889E0,2.862088084E-1
3.790759596E0,1.371490121E0,1.273380280E0,4.161709547E-1
3.795821523E0,1.468429089E0,1.222247601E0,5.195015073E-1
3.800878866E0,1.561107039E0,1.120514989E0,5.962005258E-1
3.805936262E0,1.636208057E0,9.916179776E-1,6.622468829E-1
3.810993606E0,1.672427058E0,8.541990519E-1,7.416090369E-1
3.816051002E0,1.672427058E0,7.322263122E-1,8.438742757E-1
3.821108346E0,1.628218651E0,6.363525987E-1,9.530637860E-1
3.826163085E0,1.543530226E0,5.537946820E-1,1.054796576E0
3.831220429E0,1.433275461E0,4.802915454E-1,1.141615510E0
3.836277825E0,1.313965917E0,4.078536034E-1,1.192748070E0
3.841335169E0,1.204243660E0,3.311546445E-1,1.219912410E0
3.846392564E0,1.108902693E0,2.427377850E-1,1.232162833E0
3.851449908E0,1.033801556E0,1.431356370E-1,1.239086986E0
3.856511158E0,9.821364284E-1,5.471875519E-2,1.243348122E0
3.861568502E0,9.475153089E-1,1.583664119E-2,1.235891223E0
3.866625898E0,9.123616219E-1,6.057770550E-2,1.207129121E0
3.871683241E0,8.527068496E-1,1.990619600E-1,1.148539662E0
3.876740637E0,7.829321027E-1,3.945378065E-1,1.068644881E0
3.881797981E0,6.993088722E-1,5.926768184E-1,9.764995575E-1
3.886860273E0,6.236752272E-1,7.359547615E-1,8.827564120E-1
3.891917616E0,5.810647011E-1,7.796305418E-1,8.033943176E-1
3.896975012E0,5.885215402E-1,7.221063375E-1,7.442721725E-1
3.902032356E0,6.449804902E-1,5.916115642E-1,6.713016033E-1
3.907089752E0,7.435173392E-1,4.456704855E-1,5.573184490E-1
3.912147096E0,8.756100535E-1,3.450030386E-1,4.167035818E-1
3.917210169E0,1.011431098E0,3.162409365E-1,2.851435542E-1
3.922267512E0,1.081738472E0,3.444704413E-1,2.004551291E-1
3.927324908E0,1.051378489E0,4.211694002E-1,1.589098573E-1
3.932382252E0,9.246121645E-1,5.399463177E-1,1.402677596E-1
3.937439648E0,7.483110428E-1,6.315589547E-1,1.285498440E-1
3.942496991E0,5.704120398E-1,6.049273610E-1,1.258866936E-1
3.947554648E0,4.228729904E-1,4.509967566E-1,1.290824860E-1
3.952611991E0,3.083571494E-1,2.278240770E-1,1.237561554E-1
3.957669387E0,2.156792432E-1,2.435875125E-2,1.040487811E-1
3.962726731E0,1.224686801E-1,-1.151907742E-1,6.303613633E-2
3.967784127E0,1.008338481E-2,-1.705844700E-1,-3.470428055E-4
3.972841471E0,-1.124219224E-1,-1.370286793E-1,-8.876390755E-2
3.977904231E0,-2.349272221E-1,-7.098233700E-2,-1.883660406E-1
3.982961575E0,-3.750093877E-1,-2.357810736E-2,-3.002187312E-1
3.988018971E0,-5.230809450E-1,-2.805471420E-3,-4.168651104E-1
3.993076314E0,-6.743484139E-1,1.988214441E-3,-5.430988073E-1
3.998133710E0,-8.144305348E-1,1.264084969E-2,-6.778545976E-1
4.003191054E0,-9.390663505E-1,5.045770109E-2,-8.216652274E-1
4.008253189E0,-1.068495870E0,1.282219589E-1,-9.905094504E-1
4.013310533E0,-1.183011770E0,1.788219661E-1,-1.175865293E0
4.018367929E0,-1.292201281E0,1.308850944E-1,-1.346307516E0
4.023425273E0,-1.444001317E0,2.276085503E-2,-1.474671721E0
4.028482669E0,-1.646934032E0,-5.234022439E-2,-1.540717959E0
4.033540012E0,-1.870639324E0,-5.606864393E-2,-1.578534961E0
4.038600846E0,-2.077300549E0,-8.664420806E-3,-1.600905538E0
4.043658710E0,-2.299940825E0,6.750192493E-2,-1.636059165E0
4.048716627E0,-2.574778557E0,8.507876843E-2,-1.701040268E0
4.053774491E0,-2.849084139E0,-6.831917167E-2,-1.759629726E0
4.058832408E0,-3.044559956E0,-4.310414195E-1,-1.799044371E0
4.063890325E0,-3.111671448E0,-9.295847416E-1,-1.848579168E0
4.068948814E0,-3.052016735E0,-1.407355428E0,-1.921017051E0
4.074006679E0,-2.941761971E0,-1.721608043E0,-1.985998154E0
4.079064596E0,-2.857605934E0,-1.848906994E0,-2.005172968E0
4.084122512E0,-2.824050426E0,-1.824938655E0,-1.967356086E0
4.089180377E0,-2.830974340E0,-1.684323907E0,-1.907168746E0
4.094238241E0,-2.856540918E0,-1.443574309E0,-1.835795999E0
4.099297877E0,-2.883705139E0,-1.096298456E0,-1.760694981E0
4.104355741E0,-2.897553444E0,-6.334414482E-1,-1.681865454E0
4.109413658E0,-2.892227173E0,-7.417812198E-2,-1.582263350E0
4.114471523E0,-2.867726088E0,5.287609696E-1,-1.451768517E0
4.119529439E0,-2.801679850E0,1.091752887E0,-1.269608498E0
4.124587304E0,-2.709001780E0,1.607872963E0,-1.025130510E0
4.129645689E0,-2.588627100E0,2.097894192E0,-7.609452009E-1
4.134703554E0,-2.448544979E0,2.501629114E0,-5.319135189E-1
4.139761471E0,-2.339888096E0,2.673669100E0,-3.641345501E-1
4.144819335E0,-2.286092281E0,2.666212320E0,-2.485534251E-1
4.149877252E0,-2.217382669E0,2.636384964E0,-1.478860229E-1
4.154935116E0,-2.041614294E0,2.446768045E0,-1.026123315E-1
4.159991262E0,-1.774232984E0,1.983378410E0,-2.426944822E-1
4.165049127E0,-1.599529862E0,1.505075097E0,-5.702629685E-1
4.170107044E0,-1.593670845E0,1.139689684E0,-8.807873726E-1
4.175164908E0,-1.641075015E0,9.367569685E-1,-1.118873715E0
4.180222825E0,-1.762515068E0,9.032011032E-1,-1.288250566E0
4.185280689E0,-1.979828954E0,1.009727478E0,-1.388917923E0
4.190343971E0,-2.203534126E0,1.178571820E0,-1.447507501E0
4.195401835E0,-2.376639605E0,1.343154907E0,-1.485324383E0
4.200459752E0,-2.446947098E0,1.509336114E0,-1.508227587E0
4.205517616E0,-2.424576521E0,1.542359352E0,-1.517282248E0
4.210575533E0,-2.312723875E0,1.400146723E0,-1.536989570E0
4.215633398E0,-2.165717363E0,1.098677039E0,-1.572676063E0
4.220693606E0,-2.035755396E0,7.327589989E-1,-1.598774910E0
4.225751471E0,-1.930294156E0,4.323546886E-1,-1.616351843E0
4.230809387E0,-1.850399375E0,1.553861648E-1,-1.636591792E0
4.235867304E0,-1.798734069E0,-1.460833997E-1,-1.664821267E0
4.240925169E0,-1.774232984E0,-4.555424750E-1,-1.662690759E0
4.245983033E0,-1.783820391E0,-7.575446963E-1,-1.617949724E0
4.251039491E0,-1.808321476E0,-1.045165658E0,-1.537522316E0
4.256097356E0,-1.829626679E0,-1.328525782E0,-1.433659077E0
4.261155273E0,-1.833887815E0,-1.626267076E0,-1.337785363E0
4.266213137E0,-1.824833035E0,-1.910159707E0,-1.254694819E0
4.271271054E0,-1.813115239E0,-2.153039932E0,-1.193442106E0
4.276328919E0,-1.813647747E0,-2.368755579E0,-1.139646411E0
4.281386314E0,-1.830691934E0,-2.536534786E0,-1.094372630E0
4.286444179E0,-1.857323527E0,-2.627082109E0,-1.050164223E0
4.291502096E0,-1.877563596E0,-2.643593550E0,-9.899768829E-1
4.296559960E0,-1.886085629E0,-2.605244160E0,-9.292568564E-1
4.301617877E0,-1.881291986E0,-2.565296650E0,-9.031578302E-1
4.306675741E0,-1.863715172E0,-2.548785210E0,-8.765262961E-1
4.311734387E0,-1.821637273E0,-2.551448345E0,-8.174041510E-1
4.316792252E0,-1.758786678E0,-2.558905125E0,-7.380419970E-1
4.321850169E0,-1.663978219E0,-2.558905125E0,-6.474946141E-1
4.326908033E0,-1.523896098E0,-2.526947260E0,-5.585451126E-1
4.331965950E0,-1.357715011E0,-2.480075836E0,-4.616061747E-1
4.337023866E0,-1.165967584E0,-2.414029360E0,-3.609387577E-1
4.342085169E0,-9.593063593E-1,-2.361298800E0,-2.671955824E-1
4.347143033E0,-7.340031266E-1,-2.360766172E0,-1.894313097E-1
4.352200950E0,-4.783399403E-1,-2.403909445E0,-1.303091794E-1
4.357258814E0,-1.907187849E-1,-2.445454597E0,-7.757864147E-2
4.362316731E0,1.283276379E-1,-2.458770275E0,-1.944938209E-3
4.367374596E0,4.409824312E-1,-2.458770275E0,1.061793119E-1
4.372431991E0,7.504416108E-1,-2.416692495E0,2.095098794E-1
4.377489856E0,1.087597489E0,-2.302176714E0,2.979266942E-1
4.382547773E0,1.435405970E0,-2.175410509E0,3.661035895E-1
4.387605637E0,1.763507128E0,-2.062492609E0,4.145730734E-1
4.392663554E0,2.056987047E0,-1.957563877E0,4.305520356E-1
4.397721419E0,2.296138763E0,-1.814286113E0,4.230951965E-1
4.402782252E0,2.401067257E0,-1.591113329E0,3.948656917E-1
4.407840116E0,2.273235559E0,-1.211346865E0,3.517225087E-1
4.412898033E0,1.885479808E0,-6.622036099E-1,3.096446395E-1
4.417955898E0,1.428481698E0,-6.725391001E-2,2.904698849E-1
4.423013814E0,1.059900522E0,3.380788565E-1,3.085793555E-1
4.428071679E0,7.349952459E-1,5.117167830E-1,3.501246572E-1
4.433129439E0,4.186119437E-1,4.712367952E-1,4.625099301E-1
4.438187304E0,1.469697505E-1,1.548535228E-1,7.005963922E-1
4.443245221E0,-9.644296765E-2,-3.926919401E-1,9.557269216E-1
4.448303085E0,-3.515735865E-1,-9.668689370E-1,1.032958627E0
4.453361002E0,-6.029757261E-1,-1.434519649E0,8.598532677E-1
4.458418866E0,-7.702221274E-1,-1.823873401E0,5.280237198E-1
4.463464544E0,-8.735526800E-1,-2.120016575E0,1.653014421E-1
4.468522408E0,-9.768831730E-1,-2.358103037E0,-1.478860229E-1
4.473580325E0,-1.078615904E0,-2.578079939E0,-4.126040339E-1
4.478638189E0,-1.139868617E0,-2.765033722E0,-6.208630204E-1
4.483696106E0,-1.151586533E0,-2.922692776E0,-7.417704463E-1
4.488754023E0,-1.102584362E0,-3.019098997E0,-7.715978026E-1
4.493828919E0,-1.009906411E0,-3.028153896E0,-7.518904209E-1
4.498886783E0,-9.395989776E-1,-2.918431759E0,-7.348462343E-1
4.503944700E0,-9.486537576E-1,-2.693128586E0,-7.295199037E-1
4.509002564E0,-1.031744361E0,-2.348515749E0,-7.311177850E-1
4.514060481E0,-1.116965413E0,-1.835591197E0,-7.577493787E-1
4.519118346E0,-1.096192837E0,-1.124527931E0,-8.237957358E-1
4.524152616E0,-9.055105448E-1,-2.158581764E-1,-9.132778645E-1
4.529210481E0,-5.811378360E-1,7.370200157E-1,-9.931725860E-1
4.534268398E0,-2.019040585E-1,1.477378249E0,-1.032054782E0
4.539326314E0,2.481697798E-1,1.807077289E0,-9.665409923E-1
4.544384179E0,8.090310693E-1,1.763934135E0,-7.353788614E-1
4.549442044E0,1.420492291E0,1.670190930E0,-3.742545545E-1
4.554510585E0,1.971233487E0,1.832111001E0,2.841507085E-2
4.559568450E0,2.291877508E0,2.257151127E0,3.799520135E-1
4.564626366E0,2.237016439E0,2.693376303E0,5.594488978E-1
4.569684283E0,1.892403960E0,2.881395340E0,4.827499390E-1
4.574742148E0,1.442862868E0,2.593241692E0,2.111077756E-1
4.579800064E0,9.176878929E-1,1.791630864E0,-1.042102352E-1
4.584871419E0,4.489719570E-1,6.821589470E-1,-2.757176757E-1
4.589929283E0,2.732034624E-1,-3.149276674E-1,-1.894313097E-1
4.594987200E0,4.335256219E-1,-7.378372550E-1,1.125708967E-1
4.600045064E0,8.436521292E-1,-5.679277778E-1,4.454657137E-1
4.605102981E0,1.391197562E0,-1.194518283E-1,7.016616464E-1
4.610160846E0,1.996799827E0,4.691062570E-1,8.609185219E-1
4.615219908E0,2.613054514E0,1.156201243E0,9.626511931E-1
4.620277773E0,3.202145338E0,1.883776307E0,1.056394458E0
4.625335689E0,3.719863415E0,2.536782980E0,1.144278526E0
4.630393554E0,4.137979031E0,3.013488293E0,1.245478630E0
4.635451471E0,4.450101852E0,3.316555500E0,1.371179700E0
4.640509335E0,4.634392262E0,3.526945353E0,1.485162973E0
4.645566471E0,4.698840618E0,3.693126440E0,1.558133483E0
4.650624335E0,4.652501583E0,3.800185204E0,1.571449280E0
4.655682252E0,4.480461597E0,3.815631628E0,1.514990330E0
4.660740116E0,4.170469761E0,3.696854591E0,1.395148158E0
4.665798033E0,3.748092890E0,3.431604147E0,1.242815495E0
4.670855898E0,3.259136915E0,3.016151190E0,1.088884950E0
4.675918606E0,2.776572704E0,2.514412403E0,9.658470154E-1
4.680976471E0,2.345673561E0,2.031847954E0,9.051269889E-1
4.686034387E0,1.969635606E0,1.626515031E0,9.557269216E-1
4.691092252E0,1.660709143E0,1.240357161E0,1.128299713E0
4.696150169E0,1.466831207E0,7.716411352E-1,1.366385937E0
4.701208033E0,1.386403918E0,2.496619821E-1,1.632169366E0
4.706268398E0,1.426883817E0,-2.739150524E-1,1.878245115E0
4.711326262E0,1.556313396E0,-7.484899163E-1,2.018859863E0
4.716384179E0,1.696395516E0,-1.082450032E0,2.035904169E0
4.721442044E0,1.798128247E0,-1.235315204E0,1.896887302E0
4.726499960E0,1.827422857E0,-1.227858424E0,1.664127231E0
4.731557825E0,1.788540840E0,-1.079254270E0,1.379169226E0
4.736612825E0,1.715570211E0,-8.129383326E-1,1.064916492E0
4.741670689E0,1.645262837E0,-4.709888101E-1,7.730342746E-1
4.746728606E0,1.594662905E0,-9.282023460E-2,5.567857623E-1
4.751786471E0,1.581347108E0,2.693693638E-1,4.193667769E-1
4.756844387E0,1.597326040E0,5.628494024E-1,3.378740847E-1
4.761902252E0,1.628751278E0,7.503358126E-1,2.590445876E-1
4.766959960E0,1.650589108E0,8.728411198E-1,1.722256541E-1
4.772017825E0,1.667633414E0,9.692475200E-1,1.194951013E-1
4.777075741E0,1.684144974E0,1.068317056E0,1.013856307E-1
4.782133606E0,1.672959685E0,1.134363294E0,1.178972125E-1
4.787191523E0,1.619696617E0,1.165256023E0,1.344088018E-1
4.792249439E0,1.524888158E0,1.196681380E0,1.285498440E-1
4.797314179E0,1.397589087E0,1.231302261E0,1.019182578E-1
4.802372044E0,1.248984814E0,1.264858246E0,9.552667290E-2
4.807429960E0,1.131273270E0,1.308001280E0,1.157666892E-1
4.812487825E0,1.111565828E0,1.358068705E0,1.487898678E-1
4.817545741E0,1.194123745E0,1.403875113E0,1.892698705E-1
4.822603606E0,1.326216459E0,1.432104588E0,2.451962084E-1
4.827659596E0,1.456178665E0,1.460334063E0,3.133730590E-1
4.832717460E0,1.568031311E0,1.493357182E0,3.852783442E-1
4.837775377E0,1.666035414E0,1.481639385E0,4.619773030E-1
4.842833241E0,1.739538670E0,1.388428807E0,5.413394570E-1
4.847891158E0,1.770963907E0,1.220649719E0,6.308215857E-1
4.852949023E0,1.747528076E0,9.825633168E-1,7.357500792E-1
4.858008346E0,1.678286076E0,7.077252865E-1,8.486679792E-1
4.863066262E0,1.568031311E0,4.371483326E-1,9.541290998E-1
4.868124179E0,1.419959664E0,2.150409222E-1,1.048404932E0
4.873182044E0,1.254311085E0,5.578401685E-2,1.128832340E0
4.878239960E0,1.097184777E0,-6.885180622E-2,1.182628036E0
4.883297825E0,9.762774706E-1,-1.721823514E-1,1.207661748E0
4.888357877E0,8.937195539E-1,-2.329023927E-1,1.207129121E0
4.893415741E0,8.314015865E-1,-2.265108079E-1,1.191150188E0
4.898473658E0,7.887910604E-1,-1.450181454E-1,1.161855459E0
4.903531523E0,7.477784157E-1,-3.338103183E-3,1.115516543E0
4.908589439E0,7.041025758E-1,1.846809089E-1,1.055861712E0
4.913647304E0,6.662857533E-1,3.737651706E-1,9.844890833E-1
4.918705585E0,6.327299476E-1,5.239673257E-1,9.136490822E-1
4.923763450E0,6.087615490E-1,6.187757850E-1,8.465374708E-1
4.928821366E0,6.146204472E-1,6.459400058E-1,7.916764021E-1
4.933879283E0,6.503068209E-1,6.123842001E-1,7.346847653E-1
4.938937148E0,7.120921016E-1,5.229020119E-1,6.707689762E-1
4.943995012E0,7.935847640E-1,3.865483403E-1,5.882110596E-1
4.949051262E0,9.065026641E-1,2.667061687E-1,4.848804772E-1
4.954109127E0,1.022083759E0,1.990619600E-1,3.746256828E-1
4.959166991E0,1.083336353E0,1.916051358E-1,2.952635586E-1
4.964224960E0,1.071618438E0,2.539230287E-1,2.558487952E-1
4.969282825E0,9.943869114E-1,3.503293693E-1,2.356088310E-1
4.974340689E0,8.606963158E-1,4.083862305E-1,2.281519920E-1
4.979400429E0,6.796015501E-1,3.844178021E-1,2.292172462E-1
4.984458294E0,4.654835165E-1,3.050556779E-1,2.318804115E-1
4.989516210E0,2.524308264E-1,2.075840682E-1,2.313477844E-1
4.994574075E0,7.719498873E-2,1.101124585E-1,2.292172462E-1
4.999631991E0,-4.477768764E-2,1.956506260E-2,2.159014642E-1
5.004689856E0,-1.262703538E-1,-5.393812060E-2,1.770193428E-1
5.009751887E0,-1.827293187E-1,-6.885180622E-2,1.013856307E-1
5.014809752E0,-2.285356373E-1,-4.935998470E-3,-1.046704687E-2
5.019867669E0,-2.940493524E-1,1.271566749E-1,-1.457554996E-1
5.024925533E0,-3.984451890E-1,3.013272285E-1,-2.964903116E-1
5.029983450E0,-5.321356654E-1,4.557904601E-1,-4.536166787E-1
5.035041314E0,-6.647610068E-1,5.276957154E-1,-5.990251303E-1
5.040098762E0,-7.808747292E-1,4.834873080E-1,-7.460314631E-1
5.045156783E0,-8.852705956E-1,3.279588223E-1,-8.972988725E-1
5.050214856E0,-9.870032668E-1,1.452661604E-1,-1.029924154E0
5.055272877E0,-1.116965413E0,-5.468630232E-3,-1.134320021E0
5.060330898E0,-1.308180213E0,-1.743129045E-1,-1.217943192E0
5.065388919E0,-1.547864556E0,-3.394287527E-1,-1.274402261E0
5.070446731E0,-1.823235154E0,-4.326393008E-1,-1.313816905E0
5.075504752E0,-2.110323906E0,-4.108013809E-1,-1.367612839E0
5.080562825E0,-2.364921808E0,-3.170582354E-1,-1.442713857E0
5.085620846E0,-2.573713541E0,-2.414244860E-1,-1.541250706E0
5.090678866E0,-2.737231255E0,-2.994813621E-1,-1.676006556E0
5.095736887E0,-2.857073545E0,-5.396983027E-1,-1.835795999E0
5.100795689E0,-2.923652411E0,-9.002899528E-1,-1.983335018E0
5.105853710E0,-2.927381039E0,-1.273664713E0,-2.090394258E0
5.110911731E0,-2.876248121E0,-1.609222889E0,-2.147385836E0
5.115969804E0,-2.809136629E0,-1.833993316E0,-2.160701752E0
5.121027825E0,-2.756406069E0,-1.909094453E0,-2.134070158E0
5.126085846E0,-2.732437611E0,-1.837721825E0,-2.076545715E0
5.131147512E0,-2.743090391E0,-1.642245889E0,-2.004640579E0
5.136205533E0,-2.763330460E0,-1.346102715E0,-1.942855120E0
5.141263606E0,-2.787298679E0,-9.514226317E-1,-1.885863423E0
5.146321627E0,-2.797418833E0,-4.544771910E-1,-1.808099270E0
5.151379648E0,-2.804342747E0,1.181019321E-1,-1.679734945E0
5.156437669E0,-2.798483849E0,6.688431501E-1,-1.498107553E0
5.161502929E0,-2.760134697E0,1.148744464E0,-1.273336887E0
5.166561002E0,-2.677043915E0,1.566327691E0,-9.974337220E-1
5.171619075E0,-2.552940845E0,1.966334224E0,-7.140735984E-1
5.176677096E0,-2.433098793E0,2.323730230E0,-4.914335608E-1
5.181735116E0,-2.340953350E0,2.560751200E0,-3.098061085E-1
5.186793137E0,-2.247210026E0,2.628395557E0,-1.420270801E-1
5.191840064E0,-2.112454414E0,2.545304775E0,-4.508811235E-2
5.196898137E0,-1.938283682E0,2.302424669E0,-8.077443391E-2
5.201956210E0,-1.723633051E0,1.776717186E0,-2.980882227E-1
5.207014231E0,-1.540940285E0,1.242487550E0,-7.007578015E-1
5.212072252E0,-1.416837096E0,8.515358567E-1,-1.095970631E0
5.217130273E0,-1.383281350E0,6.912136674E-1,-1.390515804E0
5.222190169E0,-1.516971827E0,7.572600245E-1,-1.592383265E0
5.227248189E0,-1.806190848E0,9.335611463E-1,-1.690387607E0
5.232306262E0,-2.113519669E0,1.148744464E0,-1.701040268E0
5.237364231E0,-2.329768181E0,1.343154907E0,-1.682398081E0
5.242422304E0,-2.397944927E0,1.451811910E0,-1.689854980E0
5.247480325E0,-2.329768181E0,1.480574012E0,-1.731400251E0
5.252535637E0,-2.184359789E0,1.365525603E0,-1.805436015E0
5.257593658E0,-2.032027006E0,1.010260224E0,-1.870949745E0
5.262651731E0,-1.895673037E0,5.260978341E-1,-1.903972864E0
5.267709752E0,-1.780624628E0,1.037208810E-1,-1.923680305E0
5.272767773E0,-1.695403457E0,-2.345002741E-1,-1.941257238E0
5.277825794E0,-1.657054067E0,-5.556772351E-1,-1.960431933E0
5.282884491E0,-1.666108727E0,-8.938983679E-1,-1.964692950E0
5.287942512E0,-1.704990864E0,-1.246500492E0,-1.932202339E0
5.293000585E0,-1.745470881E0,-1.609222889E0,-1.859764576E0
5.298058606E0,-1.775830865E0,-1.952237606E0,-1.770814896E0
5.303116627E0,-1.787548780E0,-2.257968426E0,-1.676539183E0
5.308174648E0,-1.779026628E0,-2.519490480E0,-1.586524367E0
5.313235950E0,-1.755590916E0,-2.732010603E0,-1.505031705E0
5.318293971E0,-1.726296186E0,-2.879016876E0,-1.430995941E0
5.323352044E0,-1.691142440E0,-2.989271879E0,-1.361221194E0
5.328410064E0,-1.658119321E0,-3.076090574E0,-1.285054803E0
5.333468085E0,-1.626694083E0,-3.105917931E0,-1.197170615E0
5.338526106E0,-1.592072964E0,-3.157050610E0,-1.123134732E0
5.343581366E0,-1.556919217E0,-3.216705322E0,-1.075197816E0
5.348639439E0,-1.498862386E0,-3.226825476E0,-1.018206239E0
5.353697512E0,-1.407782435E0,-3.218836069E0,-9.388441443E-1
5.358755533E0,-1.303919077E0,-3.222564220E0,-8.365789056E-1
5.363813554E0,-1.180348635E0,-3.209248543E0,-7.337809205E-1
5.368871575E0,-1.031211734E0,-3.167703152E0,-6.304503679E-1
5.373933346E0,-8.447905183E-1,-3.121364355E0,-5.233914256E-1
5.378991366E0,-6.354662776E-1,-3.085678101E0,-4.152671993E-1
5.384049439E0,-4.069672823E-1,-3.076090574E0,-3.124692738E-1
5.389107460E0,-1.571629792E-1,-3.062242270E0,-2.197913080E-1
5.394165481E0,1.171423644E-1,-3.014305592E0,-1.308418214E-1
5.399223502E0,4.196771681E-1,-2.922692776E0,-4.242495075E-2
5.404280273E0,7.413868308E-1,-2.775686264E0,4.386139289E-2
5.409338294E0,1.043921590E0,-2.616961956E0,1.530509144E-1
5.414396366E0,1.332075357E0,-2.452378988E0,2.659688294E-1
5.419454335E0,1.644730330E0,-2.216955662E0,3.298846185E-1
5.424512408E0,1.941406012E0,-1.970347166E0,3.575814962E-1
5.429570429E0,2.175763845E0,-1.720010161E0,3.549183011E-1
5.434629075E0,2.302530289E0,-1.407355428E0,3.394719958E-1
5.439687096E0,2.281757832E0,-9.775215983E-1,3.250909448E-1
5.444745169E0,2.072966099E0,-3.948224485E-1,3.202972412E-1
5.449803189E0,1.751256466E0,2.501946092E-1,3.394719958E-1
5.454861210E0,1.436471224E0,7.849569321E-1,3.906046450E-1
5.459919231E0,1.175481677E0,1.038489699E0,4.971309900E-1
5.464975116E0,9.310036898E-1,1.005466461E0,6.521268487E-1
5.470033137E0,6.455131173E-1,7.157147527E-1,7.938069105E-1
5.475091210E0,3.094224036E-1,1.830830276E-1,9.104532599E-1
5.480149231E0,-5.702821538E-2,-5.349045992E-1,9.099206924E-1
5.485207252E0,-4.314683676E-1,-1.310949087E0,7.629142404E-1
5.490265273E0,-7.446557879E-1,-1.975140810E0,5.365458131E-1
5.495326939E0,-9.539800286E-1,-2.452911377E0,3.027203977E-1
5.500384960E0,-1.083942175E0,-2.773023367E0,7.794982940E-2
5.505443033E0,-1.133476973E0,-2.945063353E0,-1.404291838E-1
5.510501054E0,-1.106312871E0,-3.006315947E0,-3.172629476E-1
5.515559075E0,-1.020026445E0,-2.993000031E0,-4.450945556E-1
5.520617096E0,-8.985863924E-1,-2.918964148E0,-5.281851292E-1
5.525673033E0,-7.846031785E-1,-2.803383112E0,-5.814483166E-1
5.530731054E0,-7.281441689E-1,-2.631875753E0,-6.224609017E-1
5.535789127E0,-7.281441689E-1,-2.354907274E0,-6.640062332E-1
5.540847148E0,-6.690220237E-1,-1.832928181E0,-7.178019881E-1
5.545905169E0,-4.293378294E-1,-1.060612082E0,-7.875767946E-1
5.550963189E0,-6.428199820E-3,-1.748455167E-1,-8.626778722E-1
5.556023710E0,4.670814276E-1,6.949421167E-1,-9.319199920E-1
5.561081731E0,8.282058239E-1,1.460866690E0,-9.782589674E-1
5.566139804E0,1.019420505E0,2.075523615E0,-9.723999500E-1
5.571197825E0,1.144056320E0,2.496302605E0,-8.669388890E-1
5.576255846E0,1.317694306E0,2.743976593E0,-6.134061813E-1
5.581313866E0,1.545660734E0,2.976204157E0,-2.144650072E-1
5.586372616E0,1.760843873E0,3.297380924E0,2.718277574E-1
5.591430637E0,1.800791264E0,3.592458963E0,7.059226632E-1
5.596488710E0,1.522224903E0,3.567425251E0,9.125838280E-1
5.601546731E0,9.618963599E-1,2.979399920E0,7.767627239E-1
5.606604752E0,2.795950174E-1,1.722921491E0,3.005898893E-1
5.611662773E0,-2.343945801E-1,-2.996969037E-2,-2.869029343E-1
5.616703971E0,-4.628936350E-1,-1.506424904E0,-6.091451049E-1
5.621762044E0,-4.399904609E-1,-2.069416523E0,-5.122061968E-1
5.626820064E0,-2.114914358E-1,-2.018816710E0,-1.798439324E-1
5.631878085E0,1.757318676E-1,-1.684323907E0,2.004551291E-1
5.636936158E0,6.796015501E-1,-1.165007830E0,5.216320753E-1
5.641994127E0,1.253245950E0,-5.673951507E-1,7.538595200E-1
5.647054648E0,1.824227095E0,6.803455204E-2,8.960722089E-1
5.652112721E0,2.378696680E0,7.806958556E-1,9.477375150E-1
5.657170741E0,2.906534910E0,1.566327691E0,9.679774642E-1
5.662228762E0,3.348086357E0,2.302957535E0,9.972722530E-1
5.667286783E0,3.649556160E0,2.905896664E0,1.044143796E0
5.672344804E0,3.811475992E0,3.383134604E0,1.094743848E0
5.677416523E0,3.889772892E0,3.740530491E0,1.126701832E0
5.682474544E0,3.910012960E0,3.962637901E0,1.122440696E0
5.687532564E0,3.878587484E0,3.959442377E0,1.095809102E0
5.692590585E0,3.793899298E0,3.711235762E0,1.077699542E0
5.697648658E0,3.659143448E0,3.287793636E0,1.091548085E0
5.702706679E0,3.482842207E0,2.774336576E0,1.137354374E0
5.707762773E0,3.287366390E0,2.282717466E0,1.203933358E0
5.712820794E0,3.090825319E0,1.880047798E0,1.284893394E0
5.717878866E0,2.887360096E0,1.533304453E0,1.375440836E0
5.722936835E0,2.679100990E0,1.182832837E0,1.462259769E0
5.727994908E0,2.485223055E0,8.259695172E-1,1.527773499E0
5.733052929E0,2.315846205E0,5.063905120E-1,1.581036687E0
5.738112721E0,2.164046049E0,2.299546003E-1,1.632169366E0
5.743170741E0,2.017572403E0,-1.984968595E-2,1.653474569E0
5.748228814E0,1.881751418E0,-2.717845142E-1,1.615657687E0
5.753286835E0,1.762974381E0,-5.231866837E-1,1.530436635E0
5.758344856E0,1.638871312E0,-7.628709674E-1,1.415920734E0
5.763402877E0,1.498256564E0,-9.615426660E-1,1.275838614E0
5.768462200E0,1.359239578E0,-1.134115338E0,1.102733254E0
5.773520221E0,1.252713323E0,-1.255555391E0,9.125838280E-1
5.778578294E0,1.206374288E0,-1.191639423E0,7.586532235E-1
5.783636314E0,1.218092203E0,-9.183994532E-1,6.563879251E-1
5.788694335E0,1.269757509E0,-5.375677347E-1,5.732973814E-1
5.793752356E0,1.350184917E0,-1.471486688E-1,4.752930999E-1
5.798809648E0,1.438069105E0,1.868114471E-1,3.533204198E-1
5.803867721E0,1.514768124E0,4.781609774E-1,2.350762039E-1
5.808925794E0,1.562172294E0,7.077252865E-1,1.647688001E-1
5.813983814E0,1.564835548E0,8.845590353E-1,1.210930049E-1
5.819041835E0,1.516898632E0,1.019847631E0,8.860246092E-2
5.824099856E0,1.423155427E0,1.116253853E0,6.356877089E-2
5.829158502E0,1.302780747E0,1.210529685E0,6.569929421E-2
5.834216523E0,1.178677440E0,1.252607584E0,9.659194201E-2
5.839274596E0,1.084934235E0,1.190822363E0,1.477245986E-1
5.844332564E0,1.044454336E0,1.094415903E0,2.244235575E-1
5.849390637E0,1.091858506E0,1.080034971E0,2.968614697E-1
5.854448658E0,1.210635304E0,1.133830786E0,3.549183011E-1
5.859509856E0,1.344858527E0,1.172180176E0,4.172362387E-1
5.864567929E0,1.475353360E0,1.178039074E0,5.205668211E-1
5.869626002E0,1.572292328E0,1.143950701E0,6.377457976E-1
5.874684023E0,1.610109210E0,1.080034971E0,7.405437231E-1
5.879742044E0,1.596260667E0,9.910854101E-1,8.422763944E-1
5.884800064E0,1.553650260E0,8.632537723E-1,9.519985318E-1
5.889845637E0,1.486538649E0,6.976053119E-1,1.061187983E0
5.894903658E0,1.391730189E0,5.058578253E-1,1.162388086E0
5.899961731E0,1.261767983E0,3.189041018E-1,1.252402782E0
5.905019752E0,1.122218490E0,1.500598490E-1,1.309394360E0
5.910077773E0,9.981153607E-1,4.651373252E-3,1.334428072E0
5.915135794E0,8.969152570E-1,-1.103970855E-1,1.340287089E0
5.920206939E0,8.314015865E-1,-1.727149934E-1,1.339221835E0
5.925264960E0,7.925194502E-1,-1.562034190E-1,1.333895564E0
5.930323033E0,7.696163058E-1,-5.606864393E-2,1.314188123E0
5.935381054E0,7.451152205E-1,1.218303666E-1,1.279034376E0
5.940439075E0,7.057005167E-1,3.407419920E-1,1.219379663E0
5.945497096E0,6.519047022E-1,5.543273091E-1,1.133093357E0
5.950580377E0,6.034352183E-1,7.082579136E-1,1.032958627E0
5.955638398E0,5.645530820E-1,7.466074228E-1,9.274975061E-1
5.960696471E0,5.608246326E-1,6.699084640E-1,8.241669536E-1
5.965754491E0,6.124899387E-1,5.564578772E-1,7.384132147E-1
5.970812512E0,7.110268474E-1,4.392788708E-1,6.505290270E-1
5.975870533E0,8.282058239E-1,3.290241063E-1,5.450679064E-1
5.980903085E0,9.432542920E-1,2.379440963E-1,4.385415018E-1
5.985961106E0,1.057770133E0,1.942682862E-1,3.240256608E-1
5.991019179E0,1.125414252E0,1.932030171E-1,2.420004159E-1
5.996077148E0,1.116359591E0,2.166388184E-1,2.111077756E-1
6.001135221E0,1.024746895E0,2.704345882E-1,2.009877712E-1
6.006193241E0,8.718816042E-1,3.173062205E-1,1.892698705E-1
6.011252512E0,6.913194656E-1,3.125125170E-1,1.802151203E-1
6.016310533E0,5.017025471E-1,2.571187913E-1,1.780845970E-1
6.021368606E0,3.317929506E-1,1.889419705E-1,1.754214466E-1
6.026426627E0,1.959718764E-1,1.415377408E-1,1.589098573E-1
6.031484648E0,7.879287750E-2,9.519876540E-2,1.258866936E-1
6.036542669E0,-3.305978701E-2,5.365349352E-2,8.540666848E-2
6.041600116E0,-1.422493011E-1,3.341348469E-2,2.415401861E-2
6.046658189E0,-2.498409301E-1,3.554401547E-2,-6.426284462E-2
6.051716262E0,-3.632914722E-1,7.868718356E-2,-1.867681444E-1
6.056774335E0,-4.746115208E-1,1.591145992E-1,-3.406987488E-1
6.061832408E0,-5.747462511E-1,2.581840754E-1,-5.138040781E-1
6.066890481E0,-6.498472691E-1,3.593841195E-1,-7.108777761E-1
6.071950325E0,-6.940557361E-1,4.350178242E-1,-9.217999578E-1
6.077008398E0,-7.180241942E-1,4.605841339E-1,-1.130059004E0
6.082066471E0,-7.702221274E-1,4.030598998E-1,-1.296772718E0
6.087124544E0,-8.980537057E-1,2.448682934E-1,-1.401168585E0
6.092182616E0,-1.122291684E0,8.379795589E-3,-1.444844365E0
6.097240689E0,-1.448262453E0,-2.600666285E-1,-1.441115975E0
6.102300064E0,-1.846670985E0,-4.598035216E-1,-1.433659077E0
6.107358137E0,-2.246677637E0,-5.077403784E-1,-1.450703382E0
6.112416210E0,-2.595551252E0,-3.916266561E-1,-1.510357976E0
6.117474283E0,-2.872519732E0,-2.073360533E-1,-1.614221334E0
6.122532356E0,-3.079713345E0,-1.130602434E-1,-1.745248675E0
6.127590429E0,-3.207545280E0,-2.616645098E-1,-1.883200288E0
6.132648554E0,-3.252286196E0,-6.408982873E-1,-2.008368969E0
6.137706627E0,-3.226720095E0,-1.062210083E0,-2.101046801E0
6.142764700E0,-3.147357702E0,-1.409485936E0,-2.174550056E0
6.147822773E0,-3.060538769E0,-1.626267076E0,-2.219823837E0
6.152880846E0,-2.990231514E0,-1.681660652E0,-2.229943514E0
6.157938919E0,-2.948686123E0,-1.579395413E0,-2.202779531E0
6.162996627E0,-2.926315546E0,-1.316275358E0,-2.150048733E0
6.168054700E0,-2.900216579E0,-8.938983679E-1,-2.071751833E0
6.173112773E0,-2.857605934E0,-3.261129558E-1,-1.973215103E0
6.178170846E0,-2.785168171E0,3.529925346E-1,-1.835795999E0
6.183228919E0,-2.662130117E0,1.042750716E0,-1.641918063E0
6.188286991E0,-2.472513199E0,1.590828776E0,-1.401168585E0
6.193343710E0,-2.249873400E0,1.935974121E0,-1.095438004E0
6.198401783E0,-2.073572159E0,2.131450176E0,-7.327156663E-1
6.203459856E0,-2.023504734E0,2.122395277E0,-3.918313980E-1
6.208517929E0,-2.156662703E0,1.965268850E0,-1.542776078E-1
6.213576002E0,-2.374509096E0,1.875254035E0,-2.751126327E-2
6.218634075E0,-2.527907133E0,1.920527935E0,1.190348715E-2
6.223693137E0,-2.536429167E0,1.909875154E0,-3.390284255E-2
6.228751210E0,-2.401140690E0,1.653679371E0,-1.745176166E-1
6.233809283E0,-2.157728195E0,1.370319247E0,-4.509535134E-1
6.238867356E0,-1.925500393E0,1.211595058E0,-7.593472600E-1
6.243925429E0,-1.760917187E0,1.125841260E0,-9.889115691E-1
6.248983502E0,-1.744405627E0,1.051272750E0,-1.171604276E0
6.254043189E0,-1.915380478E0,1.041152716E0,-1.301033854E0
6.259101262E0,-2.188620567E0,1.144483328E0,-1.391048551E0
6.264159335E0,-2.445349216E0,1.355405569E0,-1.444844365E0
6.269217408E0,-2.607801914E0,1.579643488E0,-1.491715908E0
6.274275481E0,-2.628041744E0,1.689898252E0,-1.563621163E0
6.279333554E0,-2.530037642E0,1.570588827E0,-1.648842335E0
6.284391835E0,-2.388890266E0,1.229704380E0,-1.720747590E0
6.289449908E0,-2.230698586E0,8.680474162E-1,-1.747911811E0
6.294507981E0,-2.063984632E0,5.585883856E-1,-1.777206540E0
6.299566054E0,-1.910586715E0,3.029251397E-1,-1.826208711E0
6.304624127E0,-1.801929832E0,6.270823628E-2,-1.874145508E0
6.309682200E0,-1.761982441E0,-2.126623690E-1,-1.887461305E0
6.314740169E0,-1.767841339E0,-5.636667013E-1,-1.844850779E0
6.319798241E0,-1.789146662E0,-9.343784451E-1,-1.763890743E0
6.324856314E0,-1.793407798E0,-1.250761628E0,-1.662690759E0
6.329914387E0,-1.780624628E0,-1.511218548E0,-1.563621163E0
6.334972460E0,-1.762515068E0,-1.755163908E0,-1.473606467E0
6.340030533E0,-1.739079237E0,-1.959694505E0,-1.390515804E0
6.345092096E0,-1.709784627E0,-2.104037762E0,-1.308490634E0
6.350150169E0,-1.674630880E0,-2.215357780E0,-1.223802090E0
6.355208241E0,-1.643205643E0,-2.336797714E0,-1.167875886E0
6.360266314E0,-1.617639184E0,-2.499250650E0,-1.143374801E0
6.365324387E0,-1.585681319E0,-2.676616669E0,-1.105557919E0
6.370382460E0,-1.539342403E0,-2.832145214E0,-1.034717917E0
6.375436679E0,-1.480220318E0,-2.949856997E0,-9.345831275E-1
6.380494752E0,-1.398727655E0,-3.013240099E0,-8.152735829E-1
6.385552825E0,-1.299125433E0,-3.035610676E0,-6.911703944E-1
6.390610898E0,-1.186207533E0,-3.015370607E0,-5.697304010E-1
6.395668971E0,-1.043462276E0,-2.986608505E0,-4.589430094E-1
6.400727044E0,-8.730200529E-1,-2.974890709E0,-3.497534990E-1
6.405784856E0,-6.770115495E-1,-2.991934776E0,-2.565429211E-1
6.410842929E0,-4.602304697E-1,-3.033479929E0,-1.963555217E-1
6.415901002E0,-2.237419486E-1,-3.064905405E0,-1.500165612E-1
6.420959075E0,3.884549811E-2,-3.052654743E0,-1.079386473E-1
6.426017148E0,3.248687387E-1,-2.972227335E0,-6.745863706E-2
6.431075221E0,6.162183881E-1,-2.836406231E0,-1.944938209E-3
6.436135169E0,9.192858338E-1,-2.669692755E0,9.020035714E-2
6.441193241E0,1.225548983E0,-2.485934734E0,1.775519848E-1
6.446251314E0,1.525420666E0,-2.294719696E0,2.430656850E-1
6.451309387E0,1.803987145E0,-2.092852354E0,2.803498507E-1
6.456367460E0,2.041540623E0,-1.857429147E0,2.963288426E-1
6.461425533E0,2.193873405E0,-1.560220599E0,3.043183088E-1
6.466484544E0,2.191210270E0,-1.142104745E0,2.995246053E-1
6.471542616E0,1.946732521E0,-5.327740312E-1,2.824803889E-1
6.476600689E0,1.532877445E0,1.756261736E-1,2.691646218E-1
6.481658762E0,1.138730049E0,7.407484651E-1,2.910025120E-1
6.486716835E0,7.914541960E-1,1.027836919E0,3.416025043E-1
6.491774908E0,4.676140249E-1,1.047011733E0,4.193667769E-1
6.496834179E0,2.087550312E-1,8.355568647E-1,5.498616099E-1
6.501892252E0,2.286654711E-2,3.652430773E-1,6.979331970E-1
6.506950325E0,-1.284008771E-1,-3.106666207E-1,7.714363933E-1
6.512008398E0,-2.791356742E-1,-9.775215983E-1,6.958026886E-1
6.517066471E0,-4.282725453E-1,-1.493641615E0,4.870109856E-1
6.522124544E0,-5.614304543E-1,-1.847841859E0,2.238909453E-1
6.527182564E0,-6.706199646E-1,-2.084330320E0,-3.496810794E-2
6.532240637E0,-7.707546949E-1,-2.283001900E0,-2.650650442E-1
6.537298710E0,-8.607694507E-1,-2.480075836E0,-4.584103525E-1
6.542356783E0,-9.028474092E-1,-2.603113651E0,-5.968945622E-1
6.547414856E0,-8.778137565E-1,-2.611103058E0,-6.773220301E-1
6.552472929E0,-7.776789665E-1,-2.557839870E0,-7.119430304E-1
6.557531106E0,-6.610326171E-1,-2.494989395E0,-7.188672423E-1
6.562589179E0,-5.971167684E-1,-2.450781107E0,-7.087472677E-1
6.567647252E0,-6.051062942E-1,-2.385799885E0,-6.847788692E-1
6.572705325E0,-6.375967860E-1,-2.190324068E0,-6.815830469E-1
6.577763450E0,-5.885946751E-1,-1.729597569E0,-7.252588272E-1
6.582821471E0,-3.361272514E-1,-9.546183944E-1,-7.934356928E-1
6.587879023E0,1.048918366E-1,1.157558616E-2,-8.488293886E-1
6.592937096E0,6.039678454E-1,8.808306456E-1,-8.797220588E-1
6.597995169E0,1.032736421E0,1.432637095E0,-8.664062619E-1
6.603053241E0,1.360304832E0,1.698420405E0,-7.678693533E-1
6.608111314E0,1.636208057E0,1.861938357E0,-5.430988073E-1
6.613169387E0,1.895067215E0,2.054218531E0,-1.841049939E-1
6.618228398E0,2.153925896E0,2.323197365E0,2.627730072E-1
6.623286471E0,2.321705103E0,2.718942881E0,7.543921471E-1
6.628344544E0,2.271105051E0,3.140787363E0,1.214053392E0
6.633402616E0,1.881751418E0,3.341056824E0,1.463325024E0
6.638460689E0,1.172285795E0,3.042782784E0,1.370647073E0
6.643518762E0,3.126182258E-1,2.205485821E0,9.344217181E-1
6.648579179E0,-2.823314667E-1,1.061925530E0,3.234930634E-1
6.653637252E0,-3.851293921E-1,-1.700518280E-1,-1.617344618E-1
6.658695325E0,-1.587608904E-1,-1.039839387E0,-3.284482360E-1
6.663753398E0,2.034287006E-1,-1.367940664E0,-2.181934267E-1
6.668811471E0,6.396541595E-1,-1.309883714E0,2.308875322E-2
6.673869544E0,1.111565828E0,-9.807174206E-1,2.633056343E-1
6.678923710E0,1.584542751E0,-5.066751242E-1,4.438678026E-1
6.683981783E0,2.016506910E0,7.442612946E-2,5.599815845E-1
6.689039856E0,2.406926155E0,7.812284827E-1,6.079183817E-1
6.694097981E0,2.793616772E0,1.619058251E0,6.015268564E-1
6.699156054E0,3.127044439E0,2.457953215E0,5.962005258E-1
6.704214075E0,3.337966442E0,3.138656616E0,6.100489497E-1
6.709273502E0,3.425850868E0,3.607905149E0,6.526594758E-1
6.714331575E0,3.417328596E0,3.857709646E0,7.277605534E-1
6.719389596E0,3.349151850E0,3.896059036E0,8.151121736E-1
6.724447721E0,3.251147509E0,3.746389627E0,8.779627085E-1
6.729505794E0,3.134501219E0,3.409766197E0,9.029964209E-1
6.734563814E0,2.997082233E0,2.953300714E0,9.147142768E-1
6.739605377E0,2.850608349E0,2.476062775E0,9.477375150E-1
6.744663450E0,2.709993601E0,2.032380581E0,1.011653304E0
6.749721523E0,2.582694530E0,1.695224643E0,1.102733254E0
6.754779596E0,2.474570513E0,1.452344537E0,1.211390257E0
6.759837721E0,2.387751341E0,1.235030770E0,1.333362937E0
6.764895794E0,2.324900866E0,9.591274261E-1,1.478771329E0
6.769957252E0,2.320107222E0,6.107863188E-1,1.644419789E0
6.775015325E0,2.357923985E0,2.358135730E-1,1.790893555E0
6.780073450E0,2.382957697E0,-1.008097157E-1,1.853211403E0
6.785131523E0,2.350467205E0,-3.889634907E-1,1.804209352E0
6.790189544E0,2.246603966E0,-6.158646345E-1,1.669453502E0
6.795247616E0,2.082553387E0,-7.463594079E-1,1.486228108E0
6.800320898E0,1.873761892E0,-7.799152136E-1,1.280632377E0
6.805378971E0,1.662839651E0,-7.767194510E-1,1.085156560E0
6.810437044E0,1.496658683E0,-7.623383999E-1,9.221711755E-1
6.815495116E0,1.385871172E0,-7.261193991E-1,7.916764021E-1
6.820553189E0,1.329412341E0,-6.105383039E-1,7.101837397E-1
6.825611262E0,1.335271120E0,-3.479508758E-1,6.686384082E-1
6.830668710E0,1.390132308E0,-2.805471420E-3,6.286910772E-1
6.835726783E0,1.452450156E0,3.386114836E-1,5.445352197E-1
6.840784856E0,1.507311225E0,6.656473875E-1,4.401394129E-1
6.845842929E0,1.532344937E0,9.900201559E-1,3.416025043E-1
6.850901002E0,1.514235377E0,1.272847652E0,2.505225241E-1
6.855959075E0,1.449787021E0,1.442757130E0,1.567793339E-1
6.861018814E0,1.324618578E0,1.538630962E0,8.327614516E-2
6.866076887E0,1.177612066E0,1.587633014E0,3.800244257E-2
6.871134960E0,1.049780607E0,1.572719336E0,1.669717208E-2
6.876193033E0,9.901258349E-1,1.514129877E0,3.267612681E-2
6.881251106E0,1.033801556E0,1.528510928E0,1.019182578E-1
6.886309179E0,1.149382710E0,1.551414013E0,1.706277579E-1
6.891367877E0,1.282540560E0,1.497085571E0,2.121730447E-1
6.896425950E0,1.414633393E0,1.413462520E0,2.579793632E-1
6.901484023E0,1.524888158E0,1.326643467E0,3.346783221E-1
6.906542096E0,1.589336514E0,1.240889668E0,4.364109933E-1
6.911600169E0,1.605848074E0,1.131167531E0,5.605142117E-1
6.916658241E0,1.606913328E0,9.820306301E-1,6.974005699E-1
6.921718033E0,1.586673379E0,8.004031777E-1,8.209711313E-1
6.926776106E0,1.527551174E0,6.001336575E-1,9.381501079E-1
6.931834179E0,1.427949190E0,4.179736078E-1,1.057459593E0
6.936892304E0,1.305976391E0,2.581840754E-1,1.149072289E0
6.941950325E0,1.168557405E0,1.069166735E-1,1.204998612E0
6.947008398E0,1.044454336E0,-2.304547653E-2,1.241217494E0
6.952067460E0,9.416563511E-1,-1.077339277E-1,1.261990190E0
6.957125533E0,8.585658073E-1,-1.258434057E-1,1.265718579E0
6.962183606E0,7.951825857E-1,-6.831917167E-2,1.261457682E0
6.967241679E0,7.451152205E-1,5.578401685E-2,1.250272393E0
6.972299752E0,7.120921016E-1,2.299546003E-1,1.217781782E0
6.977357825E0,6.987763047E-1,4.041251838E-1,1.164518595E0
6.982414387E0,6.950478554E-1,5.591210127E-1,1.088884950E0
6.987472460E0,6.977110505E-1,6.613863111E-1,9.951417446E-1
6.992530533E0,7.078310251E-1,6.837568283E-1,8.982027769E-1
6.997588606E0,7.376583815E-1,6.272979379E-1,8.028616309E-1
7.002646679E0,7.877257466E-1,5.191736221E-1,7.064553499E-1
7.007704752E0,8.713489771E-1,3.902767599E-1,6.095163226E-1
7.012763866E0,9.837343097E-1,2.608472407E-1,5.093815923E-1
7.017821939E0,1.107304692E0,1.617777497E-1,3.959309757E-1
7.022880012E0,1.207972169E0,1.191672012E-1,2.814151347E-1
7.027938085E0,1.248984814E0,1.212977245E-1,1.993898749E-1
7.032996158E0,1.205841660E0,2.022577673E-1,1.546488106E-1
7.038054283E0,1.089195251E0,3.332851529E-1,1.322782636E-1
7.043111523E0,9.118289948E-1,4.398115277E-1,1.333435476E-1
7.048169648E0,6.870583892E-1,4.999989569E-1,1.535835564E-1
7.053227773E0,4.383192956E-1,5.042599440E-1,1.791498661E-1
7.058285898E0,2.007655501E-1,4.478009939E-1,2.105751485E-1
7.063344023E0,2.499707416E-2,3.471335769E-1,2.254888415E-1
7.068402148E0,-6.927874684E-2,2.155735642E-1,2.233583033E-1
7.073462460E0,-1.220092922E-1,1.111777276E-1,2.084446251E-1
7.078520585E0,-1.369229853E-1,9.519876540E-2,1.679646075E-1
7.083578710E0,-1.246724427E-1,1.750935316E-1,9.818983823E-2
7.088636887E0,-9.750822932E-2,3.300893605E-1,-5.140728317E-3
7.093694960E0,-8.951875567E-2,5.229020119E-1,-1.340375990E-1
7.098753085E0,-1.236071885E-1,6.981379390E-1,-2.751850486E-1
7.103810898E0,-2.024366856E-1,8.265021443E-1,-4.157998264E-1
7.108869023E0,-3.004409671E-1,8.893527389E-1,-5.585451126E-1
7.113927148E0,-4.149567485E-1,8.946790099E-1,-7.050188780E-1
7.118985273E0,-5.539735556E-1,8.595253229E-1,-8.589494228E-1
7.124043398E0,-7.196220756E-1,7.716411352E-1,-9.979662895E-1
7.129101523E0,-9.140326381E-1,5.905463099E-1,-1.100231528E0
7.134157460E0,-1.139335990E0,3.364809453E-1,-1.166810513E0
7.139215585E0,-1.391803384E0,6.696929038E-2,-1.200366378E0
7.144273710E0,-1.663445592E0,-1.854981482E-1,-1.204094887E0
7.149331835E0,-1.957458377E0,-3.250477016E-1,-1.228595853E0
7.154389960E0,-2.252536535E0,-3.085361123E-1,-1.298903227E0
7.159448137E0,-2.512993574E0,-2.153255343E-1,-1.409158111E0
7.164508919E0,-2.723915577E0,-1.343655139E-1,-1.527934909E0
7.169567044E0,-2.904477596E0,-1.886939406E-1,-1.639255047E0
7.174625169E0,-3.043494701E0,-4.512813985E-1,-1.738857031E0
7.179683294E0,-3.104214668E0,-8.677994609E-1,-1.813958168E0
7.184741419E0,-3.078648329E0,-1.290176392E0,-1.874678254E0
7.189799544E0,-2.999286175E0,-1.604429126E0,-1.920484543E0
7.194854700E0,-2.920989275E0,-1.758359671E0,-1.945518136E0
7.199912825E0,-2.876780748E0,-1.761555433E0,-1.948181391E0
7.204970950E0,-2.863465071E0,-1.632658601E0,-1.930071950E0
7.210029127E0,-2.876780748E0,-1.384452224E0,-1.901842356E0
7.215087252E0,-2.900749445E0,-1.020664692E0,-1.873612881E0
7.220145325E0,-2.907673359E0,-5.322414637E-1,-1.834730864E0
7.225207721E0,-2.887966156E0,5.205559731E-2,-1.766021371E0
7.230265846E0,-2.828844070E0,6.555273533E-1,-1.672810793E0
7.235323971E0,-2.727111340E0,1.185495973E0,-1.538054943E0
7.240382148E0,-2.557734489E0,1.653146625E0,-1.340448499E0
7.245440221E0,-2.314321756E0,2.054218531E0,-1.078926325E0
7.250498346E0,-2.071974277E0,2.329589128E0,-7.737283111E-1
7.255554804E0,-1.910586715E0,2.468073130E0,-4.562798440E-1
7.260612929E0,-1.825365663E0,2.586850166E0,-1.707891971E-1
7.265671054E0,-1.821104527E0,2.722138643E0,1.350138243E-2
7.270729179E0,-1.833887815E0,2.735986948E0,2.362138405E-2
7.275787304E0,-1.805658221E0,2.349828959E0,-1.452228725E-1
7.280845429E0,-1.732687712E0,1.759140491E0,-4.994229972E-1
7.285903033E0,-1.681022406E0,1.293620348E0,-8.552209735E-1
7.290961158E0,-1.647999287E0,9.814980030E-1,-1.095438004E0
7.296019283E0,-1.710849762E0,8.334264159E-1,-1.268543243E0
7.301077408E0,-1.882357240E0,8.749716878E-1,-1.389983296E0
7.306135533E0,-2.078898430E0,1.074175954E0,-1.466682196E0
7.311193710E0,-2.239753246E0,1.350079298E0,-1.514619112E0
7.316254960E0,-2.340953350E0,1.524249792E0,-1.584926486E0
7.321313085E0,-2.385161638E0,1.421451807E0,-1.672278047E0
7.326371210E0,-2.384629250E0,1.142885447E0,-1.752172828E0
7.331429335E0,-2.356399775E0,8.504706025E-1,-1.801707625E0
7.336487460E0,-2.308995485E0,5.266305208E-1,-1.829404473E0
7.341545585E0,-2.268515348E0,1.596472114E-1,-1.834198117E0
7.346605012E0,-2.256264925E0,-2.318371087E-1,-1.821947575E0
7.351663137E0,-2.275439501E0,-6.355720162E-1,-1.787326574E0
7.356721262E0,-2.300473213E0,-1.007349014E0,-1.734596014E0
7.361779439E0,-2.299940825E0,-1.343972206E0,-1.666951776E0
7.366837512E0,-2.254667044E0,-1.627864957E0,-1.590785384E0
7.371895637E0,-2.182229042E0,-1.872342825E0,-1.519412875E0
7.376950221E0,-2.115649939E0,-2.096580982E0,-1.450170636E0
7.382008346E0,-2.059191227E0,-2.274479866E0,-1.368145347E0
7.387066471E0,-2.005928040E0,-2.388995647E0,-1.265880108E0
7.392124596E0,-1.947870970E0,-2.464096785E0,-1.149233699E0
7.397182721E0,-1.894607782E0,-2.525349379E0,-1.034185290E0
7.402240846E0,-1.844007730E0,-2.616961956E0,-9.484315515E-1
7.407301106E0,-1.801929832E0,-2.724553823E0,-9.122125506E-1
7.412359231E0,-1.759319305E0,-2.811372519E0,-8.903746605E-1
7.417417356E0,-1.698599339E0,-2.889136791E0,-8.466988802E-1
7.422475533E0,-1.614976168E0,-2.939204216E0,-7.774567604E-1
7.427533606E0,-1.506851912E0,-2.955715895E0,-6.938335299E-1
7.432591731E0,-1.381150842E0,-2.956248522E0,-6.096777916E-1
7.437650273E0,-1.233079195E0,-2.936541080E0,-5.228587389E-1
7.442708450E0,-1.057843328E0,-2.906181097E0,-4.365724623E-1
7.447766523E0,-8.559758067E-1,-2.879549742E0,-3.534819186E-1
7.452824700E0,-6.328030825E-1,-2.862505436E0,-2.719892561E-1
7.457882773E0,-3.877925575E-1,-2.853450537E0,-2.091386765E-1
7.462940898E0,-1.294661313E-1,-2.813503265E0,-1.606691927E-1
7.467998554E0,1.389802694E-1,-2.726151705E0,-9.302496165E-2
7.473056679E0,4.095571935E-1,-2.624418974E0,-1.944938209E-3
7.478114804E0,6.827973723E-1,-2.524284124E0,9.392878413E-2
7.483172929E0,9.581679702E-1,-2.410300732E0,1.780845970E-1
7.488231054E0,1.226081729E0,-2.270751476E0,2.425330430E-1
7.493289179E0,1.473222852E0,-2.105635643E0,2.723603845E-1
7.498348241E0,1.683612347E0,-1.910692334E0,2.611751258E-1
7.503406366E0,1.827422857E0,-1.685921788E0,2.206951529E-1
7.508464491E0,1.886545062E0,-1.413746834E0,1.759540737E-1
7.513522669E0,1.820498705E0,-1.028121471E0,1.402677596E-1
7.518580794E0,1.602119684E0,-5.056098700E-1,1.242887899E-1
7.523638866E0,1.290530086E0,5.631665140E-2,1.376045942E-1
7.528697877E0,9.938542843E-1,4.781609774E-1,1.903351396E-1
7.533756002E0,7.557678819E-1,6.395484209E-1,2.696972489E-1
7.538814127E0,5.725425482E-1,5.932094455E-1,3.751583397E-1
7.543872304E0,4.649508893E-1,4.435399175E-1,5.147079229E-1
7.548930377E0,4.266014099E-1,2.091819793E-1,6.563879251E-1
7.553988502E0,3.983719051E-1,-1.625949889E-1,7.144447565E-1
7.559047304E0,2.881171405E-1,-6.994878054E-1,6.627795100E-1
7.564105429E0,8.678235859E-2,-1.252359509E0,5.471984148E-1
7.569163554E0,-1.278682500E-1,-1.673671246E0,4.012572765E-1
7.574221679E0,-3.132241070E-1,-1.942650318E0,2.382719964E-1
7.579279804E0,-4.650241435E-1,-2.076340914E0,7.049298286E-2
7.584337929E0,-5.838009715E-1,-2.140256643E0,-1.074060202E-1
7.589397252E0,-6.850009561E-1,-2.205237627E0,-2.576082051E-1
7.594455377E0,-7.462536693E-1,-2.228673458E0,-3.699934781E-1
7.599513502E0,-7.425252199E-1,-2.186595440E0,-4.616061747E-1
7.604571627E0,-6.951210499E-1,-2.097645998E0,-5.223261714E-1
7.609629752E0,-6.573041677E-1,-2.004968166E0,-5.516209006E-1
7.614687877E0,-6.594346762E-1,-1.874473453E0,-5.681325197E-1
7.619743294E0,-6.956536174E-1,-1.671540737E0,-5.926335454E-1
7.624801419E0,-7.047083974E-1,-1.369005919E0,-6.592125297E-1
7.629859544E0,-6.019104719E-1,-8.789847493E-1,-7.641409636E-1
7.634917721E0,-3.632914722E-1,-2.126623690E-1,-8.759936690E-1
7.639975794E0,-3.359242156E-2,5.127820373E-1,-9.723999500E-1
7.645033919E0,2.993024290E-1,1.123710752E0,-1.027793646E0
7.650093606E0,5.970436335E-1,1.543957233E0,-1.000096798E0
7.655151679E0,9.299384952E-1,1.766597271E0,-8.232631087E-1
7.660209804E0,1.353380680E0,1.890167832E0,-5.079450607E-1
7.665267929E0,1.778953433E0,2.057946920E0,-1.042102352E-1
7.670326054E0,2.013311386E0,2.338643789E0,2.931330502E-1
7.675384179E0,1.968570352E0,2.647570133E0,5.722321272E-1
7.680445325E0,1.670296550E0,2.727997541E0,6.329520941E-1
7.685503450E0,1.251115441E0,2.381787062E0,4.076488614E-1
7.690561575E0,8.239447474E-1,1.578045607E0,-1.579336450E-2
7.695619700E0,4.271340370E-1,4.808241427E-1,-4.195282459E-1
7.700677825E0,1.459044814E-1,-6.057446003E-1,-5.569471717E-1
7.705735950E0,1.022286788E-1,-1.160746932E0,-3.524166346E-1
7.710794960E0,3.605550826E-1,-1.087776303E0,2.149085887E-2
7.715853085E0,8.468478918E-1,-6.856393814E-1,3.687667251E-1
7.720911210E0,1.424753308E0,-1.391592026E-1,6.260278821E-1
7.725969335E0,2.015441895E0,5.324894190E-1,8.065900803E-1
7.731027460E0,2.584292412E0,1.273912907E0,9.472048283E-1
7.736085585E0,3.112663269E0,1.984976292E0,1.048937559E0
7.741141054E0,3.549421310E0,2.603894472E0,1.151202798E0
7.746199231E0,3.861543417E0,3.108829260E0,1.264120698E0
7.751257304E0,4.039442539E0,3.486997843E0,1.353602886E0
7.756315429E0,4.114543438E0,3.728280067E0,1.393017530E0
7.761373554E0,4.086846828E0,3.857177019E0,1.381832361E0
7.766431679E0,3.957417250E0,3.905113697E0,1.323775530E0
7.771490116E0,3.745429754E0,3.835339069E0,1.225238681E0
7.776548241E0,3.474320173E0,3.589263201E0,1.129364848E0
7.781606366E0,3.194688320E0,3.195115566E0,1.060122848E0
7.786664491E0,2.934764147E0,2.727997541E0,1.007924914E0
7.791722669E0,2.705199957E0,2.308283806E0,1.008457541E0
7.796780794E0,2.485223055E0,1.971127868E0,1.087286949E0
7.801827877E0,2.289214611E0,1.646222472E0,1.224706054E0
7.806886002E0,2.148066998E0,1.248346567E0,1.360527158E0
7.811944127E0,2.060715437E0,8.206431866E-1,1.508598804E0
7.817002304E0,2.002125978E0,4.105167389E-1,1.644419789E0
7.822060429E0,1.954189301E0,5.184005015E-3,1.716325045E0
7.827118554E0,1.890273452E0,-3.633971810E-1,1.706205130E0
7.832193814E0,1.813041806E0,-6.590077877E-1,1.589026093E0
7.837251991E0,1.723559737E0,-8.496899605E-1,1.403137565E0
7.842310064E0,1.601587057E0,-9.588794708E-1,1.187421799E0
7.847368241E0,1.456178665E0,-1.027588964E0,9.642490745E-1
7.852426314E0,1.325151205E0,-1.021197319E0,7.650448084E-1
7.857484439E0,1.256974339E0,-8.709952235E-1,6.270931363E-1
7.862542512E0,1.263365865E0,-5.572751760E-1,5.461331010E-1
7.867600637E0,1.327814341E0,-1.450181454E-1,4.939352274E-1
7.872658762E0,1.394393206E0,2.139756680E-1,4.129751623E-1
7.877716939E0,1.456178665E0,4.680409729E-1,2.957961857E-1
7.882775012E0,1.515833259E0,6.571252346E-1,1.855414510E-1
7.887833137E0,1.550987005E0,7.977400422E-1,1.392024904E-1
7.892887460E0,1.540866971E0,8.824284673E-1,1.392024904E-1
7.897945637E0,1.488136530E0,9.053316712E-1,1.461267024E-1
7.903003710E0,1.397589087E0,8.920158744E-1,1.546488106E-1
7.908061835E0,1.284671187E0,9.053316712E-1,1.812803894E-1
7.913119960E0,1.163231134E0,9.303653836E-1,2.217604220E-1
7.918178085E0,1.057237387E0,9.010705948E-1,2.649035454E-1
7.923237356E0,1.000245810E0,8.281000257E-1,2.979266942E-1
7.928295481E0,1.017289996E0,8.009358644E-1,3.293519914E-1
7.933353606E0,1.124348998E0,8.664495349E-1,3.900719881E-1
7.938411731E0,1.263898492E0,9.218432903E-1,4.566509724E-1
7.943469856E0,1.379479647E0,9.404853582E-1,5.274910331E-1
7.948527981E0,1.475353360E0,9.447463751E-1,6.068531871E-1
7.953589179E0,1.546725988E0,9.293001294E-1,6.856827140E-1
7.958647304E0,1.565900683E0,8.925485015E-1,7.677079439E-1
7.963705429E0,1.527551174E0,8.227737546E-1,8.587879539E-1
7.968763554E0,1.437536478E0,7.226389647E-1,9.637164474E-1
7.973821679E0,1.307041645E0,5.969378948E-1,1.071308136E0
7.978879804E0,1.162698507E0,4.680409729E-1,1.158659697E0
7.983917356E0,1.021551132E0,3.545904160E-1,1.224706054E0
7.988975481E0,8.915889859E-1,2.677714527E-1,1.267316580E0
7.994033606E0,7.781383991E-1,1.916051358E-1,1.283295512E0
7.999091783E0,6.945152283E-1,1.319503635E-1,1.280099750E0
8.004149908E0,6.471109986E-1,1.090471968E-1,1.264120698E0
8.009208033E0,6.305994391E-1,1.228956208E-1,1.231630206E0
8.014288189E0,6.369910240E-1,1.617777497E-1,1.179965019E0
8.019346314E0,6.524373293E-1,2.294219881E-1,1.108059645E0
8.024404439E0,6.742752194E-1,3.071861863E-1,1.016979575E0
8.029462564E0,7.025046945E-1,3.748304546E-1,9.195079803E-1
8.034520689E0,7.339299917E-1,4.078536034E-1,8.300259113E-1
8.039578814E0,7.818667889E-1,3.822872937E-1,7.506637573E-1
8.044635064E0,8.393910527E-1,3.332851529E-1,6.840847731E-1
8.049693241E0,9.001110792E-1,2.858809233E-1,6.318868399E-1
8.054751419E0,9.634942412E-1,2.480641156E-1,5.834173560E-1
8.059809596E0,1.023681521E0,2.011924982E-1,5.274910331E-1
8.064867773E0,1.072151065E0,1.521903872E-1,4.662383497E-1
8.069926002E0,1.108370066E0,1.276893169E-1,3.948656917E-1
8.074987408E0,1.132871151E0,1.276893169E-1,3.181667328E-1
8.080045585E0,1.126479506E0,1.394072175E-1,2.611751258E-1
8.085103762E0,1.067890048E0,1.948009133E-1,2.425330430E-1
8.090161939E0,9.597658515E-1,2.901419997E-1,2.547835410E-1
8.095220116E0,7.978458405E-1,3.716346323E-1,2.798172534E-1
8.100278346E0,5.959783792E-1,4.046578109E-1,3.117751479E-1
8.105327200E0,3.871866465E-1,3.828199208E-1,3.522551656E-1
8.110385377E0,1.895802915E-1,3.183714449E-1,3.985941112E-1
8.115443554E0,2.626540372E-3,2.011924982E-1,4.358783364E-1
8.120501783E0,-1.550324559E-1,6.217560172E-2,4.486615062E-1
8.125559960E0,-2.615588009E-1,-6.459075212E-2,4.167035818E-1
8.130618137E0,-3.073651493E-1,-1.524749845E-1,3.453309536E-1
8.135682981E0,-3.073651493E-1,-1.785739511E-1,2.446635664E-1
8.140741158E0,-2.748745978E-1,-1.407570988E-1,1.045814157E-1
8.145799335E0,-2.429166883E-1,-4.062232375E-2,-7.278496027E-2
8.150857512E0,-2.375903875E-1,1.058514118E-1,-2.778481841E-1
8.155915689E0,-2.684830427E-1,2.704345882E-1,-4.988903701E-1
8.160973919E0,-3.366599083E-1,3.998641372E-1,-7.247262597E-1
8.166033241E0,-4.208157063E-1,4.264957309E-1,-9.644105434E-1
8.171091419E0,-5.150914788E-1,3.705693781E-1,-1.192909479E0
8.176149596E0,-6.173567772E-1,2.683040798E-1,-1.369210720E0
8.181207773E0,-7.563736439E-1,1.085145622E-1,-1.468280196E0
8.186265950E0,-9.731547832E-1,-1.082665548E-1,-1.510890722E0
8.191324179E0,-1.262906551E0,-3.564729691E-1,-1.513553858E0
8.196380064E0,-1.572898269E0,-5.780478120E-1,-1.500770688E0
8.201438241E0,-1.896205664E0,-6.499530673E-1,-1.519412875E0
8.206496419E0,-2.205132246E0,-5.466225147E-1,-1.573741198E0
8.211554648E0,-2.477306843E0,-3.378308415E-1,-1.647777081E0
8.216612773E0,-2.703675508E0,-1.828349978E-1,-1.726073980E0
8.221671002E0,-2.875182867E0,-2.313044965E-1,-1.782000184E0
8.226730429E0,-2.950284004E0,-5.125340819E-1,-1.819817185E0
8.231788606E0,-2.934304953E0,-8.784520626E-1,-1.868819237E0
8.236846783E0,-2.872519732E0,-1.172997355E0,-1.946050763E0
8.241904960E0,-2.802212477E0,-1.377528071E0,-2.026478291E0
8.246963189E0,-2.747351408E0,-1.474999547E0,-2.085067749E0
8.252021366E0,-2.734568119E0,-1.461151242E0,-2.105307817E0
8.257072825E0,-2.743622780E0,-1.324797392E0,-2.081871986E0
8.262131002E0,-2.749481678E0,-1.032915235E0,-2.019021511E0
8.267189179E0,-2.734568119E0,-6.009509563E-1,-1.924212933E0
8.272247408E0,-2.690359592E0,-5.553601682E-2,-1.800642371E0
8.277305585E0,-2.615791321E0,5.330221057E-1,-1.651505470E0
8.282363762E0,-2.503938437E0,1.061392903E0,-1.451768517E0
8.287429439E0,-2.332963943E0,1.481106639E0,-1.179593682E0
8.292487616E0,-2.135890245E0,1.747955084E0,-8.674715757E-1
8.297545794E0,-1.970241547E0,1.917864680E0,-5.723935366E-1
8.302603971E0,-1.912717223E0,2.064338207E0,-3.502861261E-1
8.307662148E0,-1.967045665E0,2.182049990E0,-2.165955305E-1
8.312720377E0,-2.069311142E0,2.312012196E0,-1.196565554E-1
8.317777564E0,-2.146010160E0,2.378058434E0,-6.426284462E-2
8.322835741E0,-2.153999567E0,2.292304754E0,-8.024180681E-2
8.327893919E0,-2.051201820E0,1.883243561E0,-2.149976194E-1
8.332952096E0,-1.853595138E0,1.394820213E0,-5.351092815E-1
8.338010273E0,-1.677826643E0,1.005999088E0,-8.925052285E-1
8.343068502E0,-1.570235014E0,7.103884220E-1,-1.169473767E0
8.348127773E0,-1.612845659E0,5.719041824E-1,-1.337252736E0
8.353185950E0,-1.788081527E0,6.635168195E-1,-1.405962229E0
8.358244127E0,-1.995275259E0,9.245064259E-1,-1.434191823E0
8.363302304E0,-2.177968025E0,1.213725567E0,-1.455496907E0
8.368360481E0,-2.303668976E0,1.420386672E0,-1.477867603E0
8.373418710E0,-2.351073265E0,1.437430859E0,-1.513553858E0
8.378476419E0,-2.306864738E0,1.329839230E0,-1.563621163E0
8.383534596E0,-2.211523771E0,1.166321278E0,-1.615286469E0
8.388592773E0,-2.100736380E0,9.282348156E-1,-1.652038097E0
8.393650950E0,-1.979828954E0,6.411463022E-1,-1.676006556E0
8.398709127E0,-1.875965595E0,3.029251397E-1,-1.674941301E0
8.403767356E0,-1.840279341E0,-9.867918491E-2,-1.625406504E0
8.408816002E0,-1.869574070E0,-5.082730055E-1,-1.540717959E0
8.413874179E0,-1.928696275E0,-9.040184617E-1,-1.433659077E0
8.418932356E0,-1.989948869E0,-1.276327968E0,-1.322871685E0
8.423990585E0,-2.023504734E0,-1.606559634E0,-1.224867463E0
8.429048762E0,-2.036820650E0,-1.868614435E0,-1.151364207E0
8.434106939E0,-2.050136328E0,-2.085395575E0,-1.095438004E0
8.439176887E0,-2.047473192E0,-2.236662865E0,-1.053892732E0
8.444235064E0,-2.027765751E0,-2.325079918E0,-1.013945222E0
8.449293241E0,-2.002199411E0,-2.376745224E0,-9.734652638E-1
8.454351419E0,-1.964915276E0,-2.401778936E0,-9.255283475E-1
8.459409596E0,-1.912717223E0,-2.450781107E0,-8.722651601E-1
8.464467825E0,-1.869041443E0,-2.542926311E0,-8.424378633E-1
8.469526106E0,-1.844540358E0,-2.628147364E0,-8.190020919E-1
8.474584283E0,-1.816310883E0,-2.696324348E0,-7.646735907E-1
8.479642460E0,-1.775298238E0,-2.733608484E0,-6.735935807E-1
8.484700637E0,-1.716176152E0,-2.749054670E0,-5.729261637E-1
8.489758814E0,-1.644270778E0,-2.769827366E0,-4.749219716E-1
8.494817044E0,-1.563310862E0,-2.806578875E0,-3.806461394E-1
8.499874752E0,-1.425891757E0,-2.772490501E0,-3.023492694E-1
8.504932929E0,-1.218698025E0,-2.694726467E0,-2.448250055E-1
8.509991106E0,-9.747526646E-1,-2.630810499E0,-2.006165683E-1
8.515049283E0,-7.095021009E-1,-2.581275702E0,-1.750502586E-1
8.520107460E0,-4.197504520E-1,-2.524284124E0,-1.702565700E-1
8.525165689E0,-1.214766651E-1,-2.443856716E0,-1.521470845E-1
8.530222877E0,1.815908104E-1,-2.341591358E0,-9.355759621E-2
8.535281054E0,4.809298217E-1,-2.231869221E0,-1.366283651E-2
8.540339231E0,7.834647298E-1,-2.120016575E0,7.262351364E-2
8.545397408E0,1.087597489E0,-1.993782878E0,1.455940604E-1
8.550455585E0,1.382142782E0,-1.854233384E0,1.988572478E-1
8.555513814E0,1.650589108E0,-1.709890246E0,2.228256762E-1
8.560575585E0,1.878555655E0,-1.552231193E0,2.180319875E-1
8.565633762E0,2.032485962E0,-1.353026867E0,1.903351396E-1
8.570691939E0,2.033018589E0,-1.053687930E0,1.466593295E-1
8.575750116E0,1.817302942E0,-6.169298887E-1,9.925509989E-2
8.580808294E0,1.439667106E0,-7.577602565E-2,6.782982498E-2
8.585866523E0,1.111565828E0,3.439378142E-1,6.782982498E-2
8.590921783E0,9.299384952E-1,4.621820450E-1,9.818983823E-2
8.595979960E0,8.457826376E-1,4.211694002E-1,1.770193428E-1
8.601038137E0,8.090310693E-1,3.908093870E-1,3.240256608E-1
8.606096366E0,7.808015943E-1,3.370135725E-1,5.232300162E-1
8.611154544E0,6.843952537E-1,1.452661604E-1,6.989985108E-1
8.616212721E0,4.670814276E-1,-2.281087041E-1,7.623816729E-1
8.621269804E0,1.613508016E-1,-6.664646864E-1,6.979331970E-1
8.626327981E0,-1.624893099E-1,-1.053687930E0,5.530573726E-1
8.631386158E0,-4.138915241E-1,-1.332254291E0,3.831478059E-1
8.636444335E0,-5.784747005E-1,-1.502163768E0,1.935309172E-1
8.641502512E0,-7.132304907E-1,-1.601765990E0,-1.526073366E-2
8.646560741E0,-8.325399756E-1,-1.677932262E0,-2.149976194E-1
8.651658658E0,-9.049779177E-1,-1.740250230E0,-3.710587621E-1
8.656716835E0,-9.166958332E-1,-1.759957552E0,-4.727914333E-1
8.661775012E0,-8.836726546E-1,-1.775936604E0,-5.292503834E-1
8.666833189E0,-8.666284084E-1,-1.838254452E0,-5.319135189E-1
8.671891366E0,-9.049779177E-1,-1.888854384E0,-5.052819252E-1
8.676949596E0,-1.002982259E0,-1.865951300E0,-4.866398573E-1
8.681968554E0,-1.140401244E0,-1.708292246E0,-5.095430017E-1
8.687026731E0,-1.233611703E0,-1.304024816E0,-5.936987996E-1
8.692084908E0,-1.157978058E0,-5.860372186E-1,-7.513577938E-1
8.697143085E0,-8.421273828E-1,3.434051573E-1,-9.739978313E-1
8.702201262E0,-3.696830869E-1,1.185495973E0,-1.183854818E0
8.707259491E0,1.624160707E-1,1.653146625E0,-1.286120057E0
8.712319544E0,7.179510593E-1,1.726649880E0,-1.225399971E0
8.717377721E0,1.258572221E0,1.649950862E0,-9.963684082E-1
8.722435898E0,1.699058652E0,1.648352981E0,-6.118083000E-1
8.727494075E0,1.952591419E0,1.745824695E0,-1.873007715E-1
8.732552252E0,2.068705082E0,1.880047798E0,1.615730226E-1
8.737610481E0,2.082020760E0,1.951420426E0,3.677015007E-1
8.742669439E0,1.807715535E0,1.864068866E0,3.756909668E-1
8.747727616E0,1.073748946E0,1.550881386E0,2.574467063E-1
8.752785794E0,1.496329010E-1,8.195779324E-1,2.116404027E-1
8.757843971E0,-4.485125840E-1,-2.360981703E-1,3.005898893E-1
8.762902200E0,-5.001778603E-1,-9.764562845E-1,4.459983706E-1
8.767960377E0,-1.449124515E-1,-9.556837082E-1,6.159079075E-1
8.773018033E0,4.399172068E-1,-4.661951065E-1,7.485331893E-1
8.778076210E0,1.134469032E0,1.473966986E-1,8.199058771E-1
8.783134387E0,1.833281875E0,7.759021521E-1,8.630490303E-1
8.788192564E0,2.485223055E0,1.382569790E0,9.131163955E-1
8.793250741E0,3.042888403E0,1.901353121E0,9.764995575E-1
8.798308971E0,3.478581190E0,2.305088043E0,1.044143796E0
8.803368502E0,3.788573027E0,2.653429031E0,1.085156560E0
8.808426679E0,3.976059198E0,2.968747139E0,1.079830170E0
8.813484856E0,4.051160336E0,3.236128330E0,1.035621762E0
8.818543033E0,4.016539097E0,3.439593792E0,9.722385406E-1
8.823601210E0,3.855684519E0,3.572218895E0,8.987353444E-1
8.828659439E0,3.578183174E0,3.640928507E0,8.358848095E-1
8.833719700E0,3.274050713E0,3.598317862E0,8.033943176E-1
8.838777877E0,3.009332657E0,3.423081875E0,8.167101145E-1
8.843836054E0,2.810128450E0,3.148776770E0,8.406785131E-1
8.848894231E0,2.678568363E0,2.829730272E0,8.790280223E-1
8.853952460E0,2.598140955E0,2.509618521E0,9.589227438E-1
8.859010637E0,2.548073769E0,2.175658464E0,1.105929136E0
8.864064752E0,2.521442175E0,1.792163610E0,1.289687037E0
8.869122929E0,2.510789156E0,1.353807688E0,1.479836583E0
8.874181106E0,2.484690428E0,9.143863916E-1,1.652409315E0
8.879239283E0,2.429829359E0,5.447399616E-1,1.746685028E0
8.884297460E0,2.330759764E0,2.549882829E-1,1.731771469E0
8.889355689E0,2.197602034E0,2.915243618E-2,1.613527179E0
8.894415221E0,2.051660776E0,-1.524749845E-1,1.436160803E0
8.899473398E0,1.893469334E0,-2.749803066E-1,1.220977545E0
8.904531575E0,1.754985094E0,-3.218519092E-1,9.962069988E-1
8.909589752E0,1.673492312E0,-3.186560869E-1,7.783606052E-1
8.914647929E0,1.648458719E0,-2.984161079E-1,5.930047631E-1
8.919706158E0,1.665502906E0,-2.297065854E-1,4.731625617E-1
8.924749596E0,1.706515551E0,-8.110234141E-2,4.188341200E-1
8.929807773E0,1.753387094E0,1.287545711E-1,4.076488614E-1
8.934865950E0,1.785877585E0,3.577862382E-1,3.762235940E-1
8.939924179E0,1.799193382E0,5.841547251E-1,3.133730590E-1
8.944982356E0,1.776822925E0,7.727063298E-1,2.569140792E-1
8.950040533E0,1.706515551E0,8.818958998E-1,2.334783077E-1
8.955099491E0,1.606913328E0,9.591274261E-1,2.313477844E-1
8.960157669E0,1.503050208E0,1.058197021E0,2.244235575E-1
8.965215846E0,1.383740664E0,1.133298159E0,2.073793560E-1
8.970274075E0,1.237799644E0,1.158864498E0,2.031182945E-1
8.975332200E0,1.099315405E0,1.171114922E0,2.361414731E-1
8.980390429E0,1.009833217E0,1.164723277E0,2.952635586E-1
8.985452460E0,1.013028979E0,1.184963465E0,3.485267460E-1
8.990510637E0,1.106772184E0,1.221714973E0,3.804846406E-1
8.995568814E0,1.237266898E0,1.183365583E0,3.948656917E-1
9.000626991E0,1.361902714E0,1.093883395E0,4.230951965E-1
9.005685169E0,1.480147004E0,1.021445513E0,4.726299345E-1
9.010743398E0,1.589336514E0,9.703127146E-1,5.525247455E-1
9.015812981E0,1.662307024E0,9.277021885E-1,6.388110518E-1
9.020871158E0,1.664970279E0,9.229084849E-1,7.282932401E-1
9.025929335E0,1.599456429E0,9.474095702E-1,8.177753091E-1
9.030987564E0,1.471092224E0,9.564642906E-1,9.115185142E-1
9.036045741E0,1.305443764E0,9.282348156E-1,1.013251185E0
9.041103919E0,1.131805897E0,8.494053483E-1,1.113918543E0
9.046163189E0,9.618963599E-1,7.258347869E-1,1.197009206E0
9.051221419E0,8.021068573E-1,5.804262757E-1,1.257196546E0
9.056279648E0,6.716120243E-1,4.408767819E-1,1.301404953E0
9.061337877E0,5.895867944E-1,3.236977756E-1,1.326438785E0
9.066396054E0,5.629552007E-1,2.406072468E-1,1.338156581E0
9.071454283E0,5.794667602E-1,2.059861869E-1,1.332297564E0
9.076513814E0,6.327299476E-1,2.193019688E-1,1.307796478E0
9.081572044E0,7.025046945E-1,2.741630375E-1,1.249739766E0
9.086630273E0,7.760078907E-1,3.572536111E-1,1.165051222E0
9.091688450E0,8.495110869E-1,4.504641294E-1,1.069710255E0
9.096746679E0,9.070353508E-1,5.276957154E-1,9.834238291E-1
9.101804908E0,9.459174275E-1,5.601862669E-1,9.211059213E-1
9.106859544E0,9.666900635E-1,5.298262835E-1,8.763648272E-1
9.111917773E0,9.778752923E-1,4.525946677E-1,8.284279704E-1
9.116976002E0,9.981153607E-1,3.428725302E-1,7.527942657E-1
9.122034179E0,1.027942657E0,2.246282995E-1,6.457353234E-1
9.127092408E0,1.042323709E0,1.303524822E-1,5.424047112E-1
9.132150637E0,1.026877403E0,9.200298041E-2,4.598467946E-1
9.137210221E0,9.800058603E-1,1.149061397E-1,3.858109415E-1
9.142268450E0,8.926542401E-1,1.884093285E-1,3.261561990E-1
9.147326679E0,7.573657632E-1,2.736304104E-1,2.824803889E-1
9.152384856E0,5.773362517E-1,3.311546445E-1,2.617077827E-1
9.157443085E0,3.791971803E-1,3.380788565E-1,2.569140792E-1
9.162501314E0,1.736013293E-1,2.757609189E-1,2.569140792E-1
9.167564439E0,-1.495030709E-2,1.671040654E-1,2.547835410E-1
9.172622669E0,-1.454450935E-1,4.406612366E-2,2.334783077E-1
9.177680898E0,-2.008388042E-1,-5.819917470E-2,1.834109277E-1
9.182739127E0,-2.109587938E-1,-1.082665548E-1,1.136361584E-1
9.187797304E0,-1.987082660E-1,-1.024076119E-1,3.320875764E-2
9.192855533E0,-1.774029881E-1,-3.742653504E-2,-6.532811373E-2
9.197909596E0,-1.635545790E-1,8.348087221E-2,-1.814418286E-1
9.202967825E0,-1.832619458E-1,2.288893461E-1,-3.151324391E-1
9.208026054E0,-2.519714534E-1,3.748304546E-1,-4.568125010E-1
9.213084231E0,-3.696830869E-1,5.170431137E-1,-5.942314267E-1
9.218142460E0,-5.342662334E-1,6.464726329E-1,-7.156714797E-1
9.223200689E0,-7.313399911E-1,7.290305495E-1,-8.221977949E-1
9.228259179E0,-9.369358420E-1,7.391505837E-1,-9.297894239E-1
9.233317408E0,-1.138803244E0,6.384831667E-1,-1.037913680E0
9.238375637E0,-1.336409688E0,4.334199131E-1,-1.116743207E0
9.243433814E0,-1.539342403E0,1.777566969E-1,-1.154027462E0
9.248492044E0,-1.789679408E0,-5.819917470E-2,-1.166278005E0
9.253550273E0,-2.078898430E0,-2.094665915E-1,-1.183854818E0
9.258611783E0,-2.368117571E0,-2.382286936E-1,-1.219541073E0
9.263670012E0,-2.638161898E0,-1.210497245E-1,-1.281326413E0
9.268728241E0,-2.865595579E0,3.394611925E-2,-1.382526517E0
9.273786419E0,-3.044559956E0,4.885981232E-2,-1.493846416E0
9.278844648E0,-3.156412363E0,-1.705844700E-1,-1.605699062E0
9.283902877E0,-3.171326160E0,-5.727214217E-1,-1.715953946E0
9.288959804E0,-3.080778837E0,-1.038774252E0,-1.857101321E0
9.294018033E0,-2.926848173E0,-1.436650038E0,-2.009966850E0
9.299076262E0,-2.784635544E0,-1.684323907E0,-2.117558241E0
9.304134439E0,-2.696218729E0,-1.770077586E0,-2.151646614E0
9.309192669E0,-2.667989254E0,-1.693378568E0,-2.129276276E0
9.314250898E0,-2.690359592E0,-1.465944886E0,-2.071751833E0
9.319309179E0,-2.737231255E0,-1.074993134E0,-1.989726663E0
9.324367408E0,-2.761732578E0,-4.981530011E-1,-1.882667542E0
9.329425637E0,-2.760134697E0,1.687019616E-1,-1.756966591E0
9.334483866E0,-2.746286154E0,8.014684319E-1,-1.638189673E0
9.339542044E0,-2.719121933E0,1.359666586E0,-1.544446468E0
9.344600273E0,-2.638694286E0,1.908277273E0,-1.407560229E0
9.349658241E0,-2.482633352E0,2.401494265E0,-1.157755852E0
9.354716471E0,-2.285027027E0,2.737052441E0,-8.690694571E-1
9.359774700E0,-2.083159447E0,2.947441816E0,-6.219282746E-1
9.364832877E0,-1.931359291E0,2.965018749E0,-4.269850850E-1
9.369891106E0,-1.764112949E0,2.811620712E0,-2.757176757E-1
9.374949335E0,-1.553190827E0,2.508020639E0,-2.464229017E-1
9.380008554E0,-1.341203451E0,2.041435242E0,-3.550798297E-1
9.385066783E0,-1.220296025E0,1.533837199E0,-6.208630204E-1
9.390125012E0,-1.233611703E0,1.176973939E0,-9.164736271E-1
9.395183189E0,-1.359312892E0,9.293001294E-1,-1.179593682E0
9.400241419E0,-1.626694083E0,7.860221267E-1,-1.370808601E0
9.405299648E0,-1.957458377E0,8.526011109E-1,-1.465616941E0
9.410355169E0,-2.237622976E0,1.084828615E0,-1.493846416E0
9.415413398E0,-2.438424826E0,1.304805517E0,-1.473073840E0
9.420471627E0,-2.549744844E0,1.370851874E0,-1.439518094E0
9.425529804E0,-2.549744844E0,1.287228703E0,-1.440583229E0
9.430588033E0,-2.459730387E0,1.091220140E0,-1.472008586E0
9.435646262E0,-2.331366062E0,7.838916183E-1,-1.517282248E0
9.440707148E0,-2.207795382E0,3.929399252E-1,-1.558827519E0
9.445765377E0,-2.111921787E0,6.377349794E-2,-1.573208570E0
9.450823606E0,-2.036820650E0,-1.993465871E-1,-1.586524367E0
9.455881783E0,-1.998470902E0,-5.082730055E-1,-1.592916012E0
9.460940012E0,-1.991014123E0,-8.954962492E-1,-1.586524367E0
9.465998241E0,-2.002199411E0,-1.280589104E0,-1.546044469E0
9.471056991E0,-2.008591175E0,-1.590048075E0,-1.469345450E0
9.476115221E0,-1.985155225E0,-1.832395434E0,-1.389450669E0
9.481173450E0,-1.931892037E0,-2.058231354E0,-1.320741177E0
9.486231627E0,-1.873302579E0,-2.281404018E0,-1.262684345E0
9.491289856E0,-1.826963544E0,-2.490728378E0,-1.214747429E0
9.496348085E0,-1.781689882E0,-2.651582956E0,-1.170539021E0
9.501402564E0,-1.741742492E0,-2.752250433E0,-1.121004224E0
9.506460794E0,-1.718839288E0,-2.792730570E0,-1.056023240E0
9.511519023E0,-1.717241406E0,-2.779947281E0,-9.660084248E-1
9.516577200E0,-1.729491830E0,-2.765033722E0,-8.829178214E-1
9.521635429E0,-1.751862526E0,-2.766098976E0,-8.339157104E-1
9.526693658E0,-1.772102475E0,-2.765566111E0,-7.875767946E-1
9.531755064E0,-1.757721424E0,-2.749587536E0,-7.300525308E-1
9.536813294E0,-1.699664593E0,-2.722423077E0,-6.613430977E-1
9.541871523E0,-1.622432947E0,-2.737336636E0,-5.809156299E-1
9.546929700E0,-1.526559234E0,-2.775686264E0,-4.972924888E-1
9.551987929E0,-1.350258112E0,-2.719760180E0,-4.189956188E-1
9.557046158E0,-1.108975887E0,-2.619625330E0,-3.375029564E-1
9.562101835E0,-8.394642472E-1,-2.550915718E0,-2.655976713E-1
9.567160064E0,-5.390598774E-1,-2.509903193E0,-2.032797337E-1
9.572218294E0,-2.226766944E-1,-2.485401869E0,-1.521470845E-1
9.577276471E0,1.064897329E-1,-2.460368156E0,-1.116670743E-1
9.582334700E0,4.431129992E-1,-2.386332512E0,-6.319758296E-2
9.587392929E0,7.733446956E-1,-2.256902933E0,1.403401420E-2
9.592453189E0,1.084401608E0,-2.099243879E0,1.120382622E-1
9.597511419E0,1.383208036E0,-1.940519691E0,2.148361951E-1
9.602569648E0,1.671894431E0,-1.786056638E0,3.000572622E-1
9.607627825E0,1.944601893E0,-1.638517499E0,3.565162122E-1
9.612686054E0,2.185351372E0,-1.481923819E0,3.756909668E-1
9.617744283E0,2.380294561E0,-1.291774273E0,3.650383055E-1
9.622804283E0,2.505995512E0,-1.032382607E0,3.442656994E-1
9.627862512E0,2.526235819E0,-6.936288476E-1,3.245582879E-1
9.632920689E0,2.394675732E0,-2.568708062E-1,3.224277794E-1
9.637978971E0,2.086282015E0,2.379440963E-1,3.362762034E-1
9.643037148E0,1.678286076E0,6.810936928E-1,3.852783442E-1
9.648095377E0,1.257506847E0,9.548664093E-1,4.603793919E-1
9.653174179E0,8.527068496E-1,1.013988614E0,5.461331010E-1
9.658232356E0,4.851908684E-1,8.845590353E-1,6.499963403E-1
9.663290585E0,1.746665984E-1,6.097210050E-1,7.730342746E-1
9.668348814E0,-1.102913991E-1,1.958661824E-1,8.699733019E-1
9.673407044E0,-3.920536041E-1,-3.713866472E-1,8.422763944E-1
9.678465221E0,-6.391947269E-1,-1.010544658E0,6.574531794E-1
9.683503346E0,-8.021799922E-1,-1.575666904E0,3.874088526E-1
9.688561575E0,-8.629000187E-1,-1.994848251E0,1.232235283E-1
9.693619804E0,-8.863358498E-1,-2.276610374E0,-1.217870787E-1
9.698677981E0,-9.023147821E-1,-2.445454597E0,-3.476229906E-1
9.703736210E0,-9.177610874E-1,-2.548252583E0,-5.409682393E-1
9.708794439E0,-9.145653248E-1,-2.624951363E0,-6.799851656E-1
9.713853085E0,-8.858031631E-1,-2.701650381E0,-7.641409636E-1
9.718911314E0,-8.495842218E-1,-2.790067434E0,-7.897072434E-1
9.723969544E0,-8.570410609E-1,-2.859309673E0,-7.742609978E-1
9.729027721E0,-9.289463758E-1,-2.894995928E0,-7.561514974E-1
9.734085950E0,-1.056245446E0,-2.852918148E0,-7.604125142E-1
9.739144179E0,-1.169163227E0,-2.586602211E0,-7.955662012E-1
9.744203814E0,-1.086605430E0,-1.870212317E0,-8.802546859E-1
9.749262044E0,-7.217526436E-1,-7.229235768E-1,-9.926400185E-1
9.754320273E0,-1.901861429E-1,4.685736001E-1,-1.089578986E0
9.759378450E0,3.626855910E-1,1.276576161E0,-1.160951614E0
9.764436679E0,8.484457731E-1,1.644624591E0,-1.162016869E0
9.769494908E0,1.253245950E0,1.822523594E0,-1.023000002E0
9.774553033E0,1.599989176E0,1.976454139E0,-7.241935730E-1
9.779611262E0,1.884947181E0,2.139972210E0,-3.204587698E-1
9.784669491E0,2.047932386E0,2.328523874E0,1.168319508E-1
9.789727721E0,2.021300793E0,2.583654404E0,5.216320753E-1
9.794785898E0,1.686275482E0,2.728530169E0,8.497332335E-1
9.799844127E0,9.555048347E-1,2.323730230E0,1.064383745E0
9.804904179E0,8.039078116E-2,1.406538129E0,1.129897594E0
9.809962408E0,-5.363967419E-1,4.067883193E-1,9.445416927E-1
9.815020637E0,-7.632978559E-1,-5.375677347E-1,4.854131043E-1
9.820078814E0,-6.402599812E-1,-1.333852291E0,-1.366283651E-2
9.825137044E0,-2.317314297E-1,-1.651833296E0,-1.505491883E-1
9.830195273E0,2.737360895E-1,-1.512283802E0,3.587191552E-2
9.835250950E0,7.626920938E-1,-1.054220557E0,2.787519693E-1
9.840309179E0,1.235669017E0,-4.038771987E-1,4.891415238E-1
9.845367408E0,1.700123906E0,3.513946235E-1,6.537247300E-1
9.850425585E0,2.167774677E0,1.179104447E0,7.410763502E-1
9.855483814E0,2.610924006E0,1.995096207E0,7.687731981E-1
9.860542044E0,2.991223097E0,2.692311287E0,7.959374189E-1
9.865601158E0,3.267126322E0,3.217486382E0,8.332216740E-1
9.870659387E0,3.418926477E0,3.572218895E0,8.555921912E-1
9.875717616E0,3.478581190E0,3.762368441E0,8.539943099E-1
9.880775794E0,3.472722292E0,3.812968493E0,8.209711313E-1
9.885834023E0,3.413600206E0,3.745856762E0,7.735669017E-1
9.890892252E0,3.323052645E0,3.597785234E0,7.538595200E-1
9.895956471E0,3.226646423E0,3.386862993E0,7.804911137E-1
9.901014700E0,3.147816896E0,3.096045971E0,8.587879539E-1
9.906072929E0,3.105206490E0,2.757824898E0,9.488027692E-1
9.911131106E0,3.089227438E0,2.419071198E0,1.028697491E0
9.916189335E0,3.077509403E0,2.101089954E0,1.094743848E0
9.921247564E0,3.058867455E0,1.795359492E0,1.152800679E0
9.926269075E0,3.018920183E0,1.487498283E0,1.217249155E0
9.931327252E0,2.932633638E0,1.165788651E0,1.268914461E0
9.936385481E0,2.793084145E0,8.339589834E-1,1.297676563E0
9.941443710E0,2.604532480E0,5.410115123E-1,1.303535581E0
9.946501887E0,2.370174408E0,2.773588300E-1,1.272642851E0
9.951560116E0,2.109717607E0,-2.624126710E-2,1.219379663E0
9.956618085E0,1.862576604E0,-3.900287747E-1,1.151202798E0
9.961676262E0,1.641534448E0,-7.857741714E-1,1.076101661E0
9.966734491E0,1.466298580E0,-1.084580541E0,9.898153543E-1
9.971792721E0,1.361902714E0,-1.185247898E0,8.912785053E-1
9.976850898E0,1.315031171E0,-1.105885863E0,7.943395376E-1
9.981909127E0,1.311835408E0,-9.002899528E-1,7.219015956E-1
9.986966054E0,1.335271120E0,-6.387678385E-1,6.734321117E-1
9.992024231E0,1.373088121E0,-3.799087405E-1,6.052552462E-1
9.997082460E0,1.409839630E0,-1.593991965E-1,5.099142194E-1
1.000214069E1,1.430612206E0,2.915243618E-2,4.151057005E-1
1.000719887E1,1.432742715E0,2.214325070E-1,3.405372798E-1
1.001225710E1,1.409839630E0,3.982662261E-1,3.128404021E-1
1.001732637E1,1.372022748E0,5.500662923E-1,3.304172456E-1
1.002238460E1,1.326749086E0,7.013337016E-1,3.629077971E-1
1.002744277E1,1.246854305E0,8.467422128E-1,3.751583397E-1
1.003250100E1,1.122751117E0,9.538011551E-1,3.538530767E-1
1.003755918E1,9.853321314E-1,1.027304411E0,3.362762034E-1
1.004261741E1,8.835994601E-1,1.062990785E0,3.400046229E-1
1.004768965E1,8.527068496E-1,1.026771784E0,3.650383055E-1
1.005274782E1,8.750773668E-1,1.020380139E0,4.124425352E-1
1.005780605E1,9.613637328E-1,1.115188599E0,4.635752141E-1
1.006286428E1,1.103043795E0,1.196681380E0,5.115121007E-1
1.006792246E1,1.258572221E0,1.212127566E0,5.615794659E-1
1.007298069E1,1.405045986E0,1.219051838E0,6.148426533E-1
1.007804079E1,1.516366005E0,1.223312974E0,6.792910695E-1
1.008309902E1,1.580281734E0,1.189224482E0,7.666426897E-1
1.008815725E1,1.595195532E0,1.135428667E0,8.683753610E-1
1.009321548E1,1.554715514E0,1.073110819E0,9.780974984E-1
1.009827366E1,1.463102818E0,9.708454013E-1,1.079830170E0
1.010333189E1,1.332075357E0,8.009358644E-1,1.171442866E0
1.010839043E1,1.185601592E0,5.745673180E-1,1.253468156E0
1.011344866E1,1.049780607E0,3.391441107E-1,1.318981767E0
1.011850689E1,9.421890378E-1,1.473966986E-1,1.358396649E0
1.012356506E1,8.649573922E-1,1.743453555E-2,1.382364988E0
1.012862329E1,8.276731372E-1,-2.730653062E-2,1.401539803E0
1.013368152E1,8.228794932E-1,1.690190472E-2,1.404202938E0
1.013871480E1,8.314015865E-1,1.266240478E-1,1.388224006E0
1.014377298E1,8.415216208E-1,2.704345882E-1,1.353602886E0
1.014883121E1,8.367279172E-1,4.222346544E-1,1.295013428E0
1.015388944E1,8.143573403E-1,5.442073345E-1,1.216716528E0
1.015894762E1,7.829321027E-1,5.894809961E-1,1.132560730E0
1.016400585E1,7.536373734E-1,5.511315465E-1,1.037219644E0
1.016910184E1,7.286036611E-1,4.547251761E-1,9.408133030E-1
1.017416006E1,7.376583815E-1,3.199693561E-1,8.507985473E-1
1.017921829E1,7.930521369E-1,1.889419705E-1,7.709037662E-1
1.018427647E1,8.777405024E-1,9.360087663E-2,6.910089850E-1
1.018933470E1,9.666900635E-1,3.021769784E-2,6.132447720E-1
1.019439293E1,1.026877403E0,-1.825179160E-2,5.333499908E-1
1.019941319E1,1.027942657E0,-4.275285453E-2,4.555857480E-1
1.020447137E1,9.736142755E-1,-2.837179415E-2,3.890067637E-1
1.020952960E1,8.857300282E-1,3.554401547E-2,3.266888261E-1
1.021458782E1,7.573657632E-1,1.069166735E-1,2.851435542E-1
1.021964600E1,5.943804979E-1,1.463314146E-1,2.830130458E-1
1.022470423E1,4.207424521E-1,1.404724717E-1,2.952635586E-1
1.022980006E1,2.694750428E-1,8.401350677E-2,3.037856817E-1
1.023485829E1,1.464371085E-1,-7.599157281E-3,3.144383132E-1
1.023991652E1,4.683497548E-2,-1.077339277E-1,3.213625252E-1
1.024497470E1,-3.678821027E-2,-1.796392053E-1,3.075140715E-1
1.025003293E1,-1.038998067E-1,-1.982813179E-1,2.553161979E-1
1.025509116E1,-1.715440452E-1,-1.641928852E-1,1.764867008E-1
1.026011303E1,-2.546346188E-1,-9.974445403E-2,8.221088350E-2
1.026517121E1,-3.483778238E-1,-1.771916077E-2,-2.964178845E-2
1.027022944E1,-4.383925498E-1,4.193560034E-2,-1.718544513E-1
1.027528767E1,-5.300052166E-1,6.324086338E-2,-3.572103381E-1
1.028034585E1,-6.130957007E-1,5.631665140E-2,-5.894377232E-1
1.028540408E1,-6.589020491E-1,2.489138208E-2,-8.482968211E-1
1.029046230E1,-6.844683886E-1,-1.186021138E-2,-1.097568512E0
1.029552048E1,-7.414599657E-1,-1.132757962E-2,-1.288250566E0
1.030057871E1,-8.687589765E-1,-4.381811619E-2,-1.399570704E0
1.030563694E1,-1.089268565E0,-1.860307902E-1,-1.447507501E0
1.031069512E1,-1.399792910E0,-3.937571943E-1,-1.454431772E0
1.031575335E1,-1.736948848E0,-5.647320151E-1,-1.470943332E0
1.032084975E1,-2.018178463E0,-6.116035581E-1,-1.513553858E0
1.032590798E1,-2.251471281E0,-5.183929801E-1,-1.581198096E0
1.033096621E1,-2.482100725E0,-3.303740323E-1,-1.704768658E0
1.033602439E1,-2.729774475E0,-2.174560577E-1,-1.840589762E0
1.034108262E1,-2.949751616E0,-3.362329602E-1,-1.943920255E0
1.034614085E1,-3.074387312E0,-6.350393891E-1,-2.013162613E0
1.035119350E1,-3.082376719E0,-9.572815299E-1,-2.075480461E0
1.035625173E1,-3.001949310E0,-1.182584763E0,-2.150581598E0
