Time (s),Acceleration x (m/s^2),Acceleration y (m/s^2),Acceleration z (m/s^2),Absolute acceleration (m/s^2)
2.529609700E-2,-4.929214716E-1,4.970191956E0,8.412266731E0,9.783251566E0
2.769979500E-2,-5.144568682E-1,4.970191956E0,8.414659500E0,9.786417549E0
3.010193100E-2,-5.168496966E-1,4.955834866E0,8.419445992E0,9.783378947E0
3.250489900E-2,-5.192425251E-1,4.955834866E0,8.419445992E0,9.783505651E0
3.490786800E-2,-5.192425251E-1,4.965405941E0,8.424231529E0,9.792473938E0
3.731073300E-2,-5.288137794E-1,4.977370262E0,8.431409836E0,9.805229756E0
3.971453500E-2,-5.216353536E-1,4.963013172E0,8.417053223E0,9.785212729E0
4.211667000E-2,-5.694918036E-1,4.967798710E0,8.424231529E0,9.796480072E0
4.451963900E-2,-5.886343718E-1,4.984548569E0,8.419445992E0,9.802004166E0
4.692338900E-2,-5.958128572E-1,4.963013172E0,8.393124580E0,9.768880843E0
4.932547200E-2,-6.101697683E-1,4.977370262E0,8.405088425E0,9.787340461E0
5.172849300E-2,-6.053841114E-1,4.970191956E0,8.405088425E0,9.783394576E0
5.413146200E-2,-6.221339107E-1,4.989334106E0,8.405088425E0,9.794182807E0
5.653432700E-2,-6.340979934E-1,4.984548569E0,8.395517349E0,9.784299477E0
5.893812900E-2,-6.412764788E-1,5.003691196E0,8.388339043E0,9.788380510E0
6.134021200E-2,-6.364908218E-1,4.984548569E0,8.371588707E0,9.763930688E0
6.374323300E-2,-6.317051649E-1,5.008476734E0,8.383553505E0,9.786105455E0
6.614698300E-2,-6.173482537E-1,5.020441055E0,8.381160736E0,9.789269765E0
6.854906600E-2,-6.269195080E-1,5.030012131E0,8.373981476E0,9.788647295E0
7.095208700E-2,-6.149554253E-1,5.015655518E0,8.378767967E0,9.784616655E0
7.335495200E-2,-6.269195080E-1,5.056333542E0,8.362017632E0,9.791980179E0
7.575797200E-2,-6.053841114E-1,5.058726311E0,8.352446556E0,9.783688736E0
7.816172200E-2,-6.029912829E-1,5.044369221E0,8.326125145E0,9.753646459E0
8.056380600E-2,-6.005984545E-1,5.049154758E0,8.333304405E0,9.762102468E0
8.296682700E-2,-5.934200287E-1,5.053940296E0,8.318946838E0,9.751888860E0
8.537052400E-2,-5.982056856E-1,5.049154758E0,8.314161301E0,9.745619116E0
8.777266000E-2,-6.101697683E-1,5.063810825E0,8.304590225E0,9.745804535E0
9.017562900E-2,-6.149554253E-1,5.080560684E0,8.278268814E0,9.732420131E0
9.257859700E-2,-6.029912829E-1,5.070989609E0,8.278268814E0,9.726678192E0
9.498156600E-2,-6.125625968E-1,5.087738991E0,8.263912201E0,9.723814367E0
9.738526400E-2,-6.221339107E-1,5.090131760E0,8.244769096E0,9.709413442E0
9.978739900E-2,-6.269195080E-1,5.087738991E0,8.251948357E0,9.714564725E0
1.021903680E-1,-6.293123364E-1,5.092525005E0,8.251948357E0,9.717226797E0
1.045941180E-1,-6.221339107E-1,5.075775146E0,8.249555588E0,9.705962669E0
1.069962540E-1,-6.388836503E-1,5.078167915E0,8.263912201E0,9.720504440E0
1.093992220E-1,-6.317051649E-1,5.073382378E0,8.256733894E0,9.711432169E0
1.118021910E-1,-6.412764788E-1,5.066203594E0,8.249555588E0,9.702207057E0
1.142050560E-1,-6.317051649E-1,5.078167915E0,8.263912201E0,9.720035270E0
1.166088580E-1,-6.556333899E-1,5.080560684E0,8.266304970E0,9.724903591E0
1.190109930E-1,-6.484549642E-1,5.066203594E0,8.285447121E0,9.733218722E0
1.214139620E-1,-6.460621357E-1,5.063810825E0,8.275876045E0,9.723667038E0
1.238177120E-1,-6.460621357E-1,5.058726311E0,8.311768532E0,9.751594962E0
1.262197950E-1,-6.556333899E-1,5.058726311E0,8.302197456E0,9.744077670E0
1.286228160E-1,-6.747759581E-1,5.053940296E0,8.323732376E0,9.761257899E0
1.310256810E-1,-6.723831892E-1,5.066203594E0,8.328517914E0,9.771526424E0
1.334287020E-1,-6.819544435E-1,5.058726311E0,8.299804688E0,9.743845832E0
1.358324520E-1,-6.795616150E-1,5.063810825E0,8.342875481E0,9.783023835E0
1.382345350E-1,-6.580262184E-1,5.053940296E0,8.347661018E0,9.780529408E0
1.406375560E-1,-6.675975323E-1,5.049154758E0,8.352446556E0,9.782791714E0
1.430412540E-1,-6.580262184E-1,5.037190914E0,8.335697174E0,9.761666773E0
1.454433890E-1,-6.556333899E-1,5.037190914E0,8.340482712E0,9.765592625E0
1.478464100E-1,-6.532405615E-1,5.025226593E0,8.333304405E0,9.753132207E0
1.502492740E-1,-6.029912829E-1,5.034798145E0,8.354839325E0,9.773235442E0
1.526522950E-1,-6.364908218E-1,5.037190914E0,8.362017632E0,9.782727214E0
1.550559930E-1,-6.101697683E-1,5.046761990E0,8.366803169E0,9.790071961E0
1.574581290E-1,-6.053841114E-1,5.018048286E0,8.335697174E0,9.748391965E0
1.598611490E-1,-5.910272002E-1,5.034798145E0,8.347661018E0,9.766368311E0
1.622648470E-1,-6.077769399E-1,5.044369221E0,8.326125145E0,9.753943488E0
1.646669830E-1,-5.934200287E-1,5.034798145E0,8.328517914E0,9.750156426E0
1.670699520E-1,-5.790630579E-1,5.044369221E0,8.309375763E0,9.737900206E0
1.694729200E-1,-5.718846321E-1,5.008476734E0,8.326125145E0,9.733254911E0
1.718758890E-1,-5.862415433E-1,5.015655518E0,8.333304405E0,9.743943849E0
1.742795870E-1,-5.766702294E-1,4.991727352E0,8.347661018E0,9.743373902E0
1.766817220E-1,-5.599204898E-1,5.006083965E0,8.335697174E0,9.739519239E0
1.790846910E-1,-5.670989752E-1,5.015655518E0,8.342875481E0,9.750998554E0
1.814884410E-1,-5.718846321E-1,5.010869503E0,8.357232094E0,9.761106161E0
1.838905770E-1,-5.910272002E-1,5.006083965E0,8.342875481E0,9.747500249E0
1.862935450E-1,-5.814558864E-1,5.022833824E0,8.352446556E0,9.763724394E0
1.886965140E-1,-5.814558864E-1,5.018048286E0,8.357232094E0,9.765358561E0
1.910993790E-1,-5.958128572E-1,5.030012131E0,8.330910683E0,9.749876297E0
1.935031810E-1,-6.005984545E-1,5.025226593E0,8.335697174E0,9.751793076E0
1.959053160E-1,-6.077769399E-1,5.027619362E0,8.335697174E0,9.753471004E0
1.983082850E-1,-6.197410822E-1,5.037190914E0,8.347661018E0,9.769381546E0
2.007120350E-1,-6.245267391E-1,5.046761990E0,8.330910683E0,9.760323408E0
2.031141180E-1,-6.149554253E-1,5.056333542E0,8.342875481E0,9.774878534E0
2.055171390E-1,-5.934200287E-1,5.073382378E0,8.352446556E0,9.790542352E0
2.079201080E-1,-6.101697683E-1,5.053940296E0,8.381160736E0,9.806042777E0
2.103229720E-1,-6.245267391E-1,5.075775146E0,8.357232094E0,9.797798490E0
2.127267740E-1,-6.340979934E-1,5.073382378E0,8.366803169E0,9.805339580E0
2.151288580E-1,-6.412764788E-1,5.063810825E0,8.393124580E0,9.823337306E0
2.175318790E-1,-6.293123364E-1,5.049154758E0,8.397910118E0,9.819108521E0
2.199356290E-1,-6.173482537E-1,5.087738991E0,8.397910118E0,9.838246859E0
2.223377120E-1,-6.197410822E-1,5.061418056E0,8.414659500E0,9.839132393E0
2.247407330E-1,-6.340979934E-1,5.044369221E0,8.397910118E0,9.816956527E0
2.271435970E-1,-6.269195080E-1,5.056333542E0,8.393124580E0,9.818557795E0
2.295466180E-1,-6.436693072E-1,5.056333542E0,8.424231529E0,9.846242731E0
2.319503680E-1,-6.221339107E-1,5.032404900E0,8.397910118E0,9.810048115E0
2.343524520E-1,-6.293123364E-1,5.039583683E0,8.438588142E0,9.849020639E0
2.367554720E-1,-6.269195080E-1,5.044369221E0,8.419445992E0,9.834925506E0
2.391591700E-1,-6.269195080E-1,5.025226593E0,8.412266731E0,9.818969495E0
2.415613060E-1,-6.388836503E-1,5.018048286E0,8.431409836E0,9.832479481E0
2.439643270E-1,-6.125625968E-1,5.015655518E0,8.381160736E0,9.786515646E0
2.463671910E-1,-6.101697683E-1,5.008476734E0,8.393124580E0,9.792940650E0
2.487702120E-1,-6.005984545E-1,4.986941338E0,8.390731812E0,9.779298683E0
2.511739100E-1,-5.862415433E-1,4.986941338E0,8.390731812E0,9.778427449E0
2.535760450E-1,-5.838487148E-1,4.982155800E0,8.369195938E0,9.757366263E0
2.559790660E-1,-5.886343718E-1,4.965405941E0,8.357232094E0,9.738843610E0
2.583827640E-1,-5.718846321E-1,4.951049328E0,8.347661018E0,9.722313817E0
2.607848990E-1,-5.312066078E-1,4.946263313E0,8.345268250E0,9.715513542E0
2.631879200E-1,-5.383850932E-1,4.943870544E0,8.342875481E0,9.712635366E0
2.655907850E-1,-5.503492355E-1,4.941477776E0,8.330910683E0,9.701812186E0
2.679938060E-1,-5.670989752E-1,4.941477776E0,8.311768532E0,9.686346059E0
2.703975040E-1,-5.312066078E-1,4.919942379E0,8.321339607E0,9.681565283E0
2.727996390E-1,-5.312066078E-1,4.951049328E0,8.321339607E0,9.697410106E0
2.752026080E-1,-5.479564071E-1,4.948656559E0,8.295019150E0,9.674543951E0
2.776063580E-1,-5.455635786E-1,4.929513931E0,8.292626381E0,9.662577271E0
2.800084930E-1,-5.264210105E-1,4.915156841E0,8.275876045E0,9.639813804E0
2.824114620E-1,-5.383850932E-1,4.934299469E0,8.304590225E0,9.674884421E0
2.848144310E-1,-5.503492355E-1,4.946263313E0,8.314161301E0,9.689875292E0
2.872173990E-1,-5.503492355E-1,4.922335148E0,8.302197456E0,9.667406591E0
2.896210970E-1,-5.455635786E-1,4.948656559E0,8.323732376E0,9.699039232E0
2.920232330E-1,-5.383850932E-1,4.951049328E0,8.342875481E0,9.716291435E0
2.944262020E-1,-5.718846321E-1,4.977370262E0,8.359624863E0,9.746004033E0
2.968299520E-1,-5.551348329E-1,4.989334106E0,8.362017632E0,9.753202980E0
2.992320350E-1,-5.599204898E-1,4.994120121E0,8.381160736E0,9.772338616E0
3.016350560E-1,-5.766702294E-1,5.015655518E0,8.407481194E0,9.806889866E0
3.040380240E-1,-5.670989752E-1,5.025226593E0,8.431409836E0,9.831743252E0
3.064408890E-1,-5.742774606E-1,5.032404900E0,8.421838760E0,9.827627475E0
3.088446910E-1,-5.838487148E-1,5.041976452E0,8.438588142E0,9.847445136E0
3.112467740E-1,-5.910272002E-1,5.034798145E0,8.445766449E0,9.850354127E0
3.136497950E-1,-5.766702294E-1,5.037190914E0,8.462516785E0,9.865091545E0
3.160535450E-1,-6.053841114E-1,5.025226593E0,8.479565620E0,9.875344315E0
3.184556290E-1,-6.077769399E-1,5.013262749E0,8.489136696E0,9.877633220E0
3.208586490E-1,-6.077769399E-1,4.991727352E0,8.489136696E0,9.866720661E0
3.232616180E-1,-6.005984545E-1,4.972584724E0,8.462516785E0,9.833692474E0
3.256644830E-1,-6.005984545E-1,4.982155800E0,8.452944756E0,9.830303655E0
3.280682850E-1,-6.125625968E-1,4.965405941E0,8.472386360E0,9.839299758E0
3.304703680E-1,-6.269195080E-1,4.970191956E0,8.443373680E0,9.817657320E0
3.328733890E-1,-6.125625968E-1,4.972584724E0,8.438588142E0,9.813847442E0
3.352771390E-1,-6.101697683E-1,4.977370262E0,8.429017067E0,9.807897358E0
3.376792220E-1,-5.958128572E-1,4.963013172E0,8.395517349E0,9.770936714E0
3.400822430E-1,-5.838487148E-1,4.943870544E0,8.381160736E0,9.748158317E0
3.424851080E-1,-5.814558864E-1,4.967798710E0,8.366803169E0,9.747846441E0
3.448881290E-1,-5.575276613E-1,4.934299469E0,8.347661018E0,9.712960044E0
3.472918790E-1,-5.742774606E-1,4.941477776E0,8.359624863E0,9.727863334E0
3.496939620E-1,-5.647061467E-1,4.931906700E0,8.330910683E0,9.697766214E0
3.520969830E-1,-5.527420044E-1,4.958227634E0,8.304590225E0,9.687918446E0
3.545006810E-1,-5.647061467E-1,4.936692238E0,8.314161301E0,9.685819605E0
3.569028160E-1,-5.503492355E-1,4.955834866E0,8.326125145E0,9.705026709E0
3.593058370E-1,-5.575276613E-1,4.965405941E0,8.321339607E0,9.706224091E0
3.617087020E-1,-5.575276613E-1,4.979763031E0,8.323732376E0,9.715626465E0
3.641117220E-1,-5.623133183E-1,4.986941338E0,8.314161301E0,9.711388073E0
3.665154200E-1,-5.359922647E-1,4.982155800E0,8.323732376E0,9.715641244E0
3.689175560E-1,-5.527420044E-1,5.003691196E0,8.318946838E0,9.723544920E0
3.713205770E-1,-5.383850932E-1,5.003691196E0,8.323732376E0,9.726834262E0
3.737242740E-1,-5.431707501E-1,5.010869503E0,8.333304405E0,9.738984031E0
3.761264100E-1,-5.551348329E-1,5.010869503E0,8.347661018E0,9.751945054E0
3.785293790E-1,-5.527420044E-1,5.025226593E0,8.357232094E0,9.767382162E0
3.809323470E-1,-5.790630579E-1,5.041976452E0,8.340482712E0,9.763221417E0
3.833353160E-1,-5.718846321E-1,5.046761990E0,8.347661018E0,9.771402309E0
3.857390140E-1,-6.029912829E-1,5.034798145E0,8.359624863E0,9.777326766E0
3.881411490E-1,-5.910272002E-1,5.058726311E0,8.371588707E0,9.799159276E0
3.905441700E-1,-6.221339107E-1,5.058726311E0,8.376375198E0,9.805173326E0
3.929478680E-1,-6.101697683E-1,5.070989609E0,8.359624863E0,9.796457043E0
3.953500040E-1,-6.197410822E-1,5.039583683E0,8.357232094E0,9.778793943E0
3.977529720E-1,-6.340979934E-1,5.053940296E0,8.390731812E0,9.815741088E0
4.001559410E-1,-6.197410822E-1,5.044369221E0,8.395517349E0,9.813992633E0
4.025589100E-1,-6.580262184E-1,5.049154758E0,8.388339043E0,9.812807660E0
4.049626080E-1,-6.364908218E-1,5.058726311E0,8.402695656E0,9.828587220E0
4.073647430E-1,-6.245267391E-1,5.063810825E0,8.388339043E0,9.818169158E0
4.097677120E-1,-6.293123364E-1,5.046761990E0,8.409873962E0,9.828113790E0
4.121714620E-1,-6.317051649E-1,5.058726311E0,8.402695656E0,9.828278465E0
4.145735970E-1,-6.197410822E-1,5.061418056E0,8.400302887E0,9.826857094E0
4.169765660E-1,-6.293123364E-1,5.046761990E0,8.402695656E0,9.821972046E0
4.193795350E-1,-6.173482537E-1,5.056333542E0,8.412266731E0,9.834320480E0
4.217823990E-1,-6.149554253E-1,5.063810825E0,8.383553505E0,9.813476429E0
4.241862020E-1,-6.293123364E-1,5.053940296E0,8.405088425E0,9.827708683E0
4.265883370E-1,-6.340979934E-1,5.070989609E0,8.369195938E0,9.806143815E0
4.289913060E-1,-6.388836503E-1,5.063810825E0,8.371588707E0,9.804787090E0
4.313950560E-1,-6.508477330E-1,5.044369221E0,8.373981476E0,9.797593039E0
4.337971910E-1,-6.388836503E-1,5.034798145E0,8.383553505E0,9.800068064E0
4.362001600E-1,-6.388836503E-1,5.041976452E0,8.362017632E0,9.785348115E0
4.386031290E-1,-6.197410822E-1,5.037190914E0,8.378767967E0,9.795974886E0
4.410059930E-1,-6.508477330E-1,5.030012131E0,8.385946274E0,9.800444873E0
4.434097950E-1,-6.412764788E-1,5.041976452E0,8.390731812E0,9.810053129E0
4.458119310E-1,-6.197410822E-1,5.046761990E0,8.402695656E0,9.821363443E0
4.482148990E-1,-6.245267391E-1,5.046761990E0,8.412266731E0,9.829856143E0
4.506186490E-1,-6.197410822E-1,5.051547527E0,8.417053223E0,9.836106770E0
4.530207330E-1,-6.077769399E-1,5.049154758E0,8.455337524E0,9.866918933E0
4.554237540E-1,-5.934200287E-1,5.049154758E0,8.431409836E0,9.845546350E0
4.578267220E-1,-5.838487148E-1,5.034798145E0,8.455337524E0,9.858133918E0
4.602295870E-1,-5.958128572E-1,5.034798145E0,8.450551987E0,9.854745771E0
4.626333890E-1,-5.958128572E-1,5.049154758E0,8.450551987E0,9.862088299E0
4.650355240E-1,-6.029912829E-1,5.044369221E0,8.457730293E0,9.866228309E0
4.674384930E-1,-6.005984545E-1,5.046761990E0,8.472386360E0,9.879871240E0
4.698422430E-1,-5.910272002E-1,5.030012131E0,8.472386360E0,9.870747987E0
4.722443270E-1,-6.125625968E-1,5.027619362E0,8.455337524E0,9.856212357E0
4.746473470E-1,-5.910272002E-1,5.025226593E0,8.481958389E0,9.876529430E0
4.770503160E-1,-5.958128572E-1,5.013262749E0,8.467600822E0,9.858400481E0
4.794531810E-1,-5.934200287E-1,5.032404900E0,8.450551987E0,9.853378876E0
4.818569830E-1,-5.718846321E-1,5.013262749E0,8.455337524E0,9.846450532E0
4.842590660E-1,-5.862415433E-1,5.001298428E0,8.457730293E0,9.843265049E0
4.866620870E-1,-5.838487148E-1,5.006083965E0,8.445766449E0,9.835279706E0
4.890658370E-1,-5.862415433E-1,5.015655518E0,8.452944756E0,9.846458981E0
4.914679200E-1,-5.503492355E-1,4.991727352E0,8.464909554E0,9.842505778E0
4.938709410E-1,-5.623133183E-1,5.008476734E0,8.443373680E0,9.833188423E0
4.962739100E-1,-5.718846321E-1,5.008476734E0,8.440980911E0,9.831686019E0
4.986767740E-1,-5.359922647E-1,5.006083965E0,8.452944756E0,9.838721432E0
5.010805770E-1,-5.240281820E-1,5.010869503E0,8.431409836E0,9.822020695E0
5.034826600E-1,-5.288137794E-1,5.006083965E0,8.419445992E0,9.809566325E0
5.058856810E-1,-5.024927258E-1,5.027619362E0,8.455337524E0,9.849984164E0
5.082894310E-1,-4.977070987E-1,4.986941338E0,8.431409836E0,9.808464104E0
5.106915140E-1,-4.977070987E-1,5.003691196E0,8.417053223E0,9.804663324E0
5.130945350E-1,-4.833501875E-1,4.998905659E0,8.419445992E0,9.803558333E0
5.154975040E-1,-4.689932466E-1,5.003691196E0,8.421838760E0,9.807356849E0
5.179003680E-1,-4.833501875E-1,4.989334106E0,8.409873962E0,9.790457716E0
5.203041700E-1,-4.881358147E-1,4.996512890E0,8.409873962E0,9.794355400E0
5.227062540E-1,-4.761717021E-1,4.970191956E0,8.402695656E0,9.774192644E0
5.251092740E-1,-4.809573591E-1,4.963013172E0,8.400302887E0,9.768720915E0
5.275130240E-1,-4.929214716E-1,4.953442097E0,8.366803169E0,9.735653828E0
5.299151080E-1,-5.096712112E-1,4.960620403E0,8.359624863E0,9.734004694E0
5.323181290E-1,-5.000999570E-1,4.963013172E0,8.376375198E0,9.749115918E0
5.347209930E-1,-4.977070987E-1,4.958227634E0,8.373981476E0,9.744500982E0
5.371240140E-1,-5.048855543E-1,4.955834866E0,8.366803169E0,9.737484476E0
5.395277640E-1,-4.929214716E-1,4.955834866E0,8.371588707E0,9.740983948E0
5.419298470E-1,-5.000999570E-1,4.943870544E0,8.359624863E0,9.724982456E0
5.443328680E-1,-4.929214716E-1,4.951049328E0,8.376375198E0,9.742665061E0
5.467366180E-1,-4.977070987E-1,4.965405941E0,8.347661018E0,9.725554637E0
5.491387020E-1,-5.192425251E-1,4.979763031E0,8.376375198E0,9.758653294E0
5.515417220E-1,-4.833501875E-1,4.977370262E0,8.362017632E0,9.743263365E0
5.539445870E-1,-4.857429862E-1,4.967798710E0,8.354839325E0,9.732333246E0
5.563476080E-1,-5.359922647E-1,4.986941338E0,8.352446556E0,9.742701632E0
5.587513580E-1,-5.120640397E-1,5.006083965E0,8.347661018E0,9.747129358E0
5.611534410E-1,-5.072783828E-1,4.991727352E0,8.330910683E0,9.725160467E0
5.635564620E-1,-5.216353536E-1,5.008476734E0,8.323732376E0,9.728384414E0
5.659602120E-1,-5.264210105E-1,5.010869503E0,8.321339607E0,9.727827358E0
5.683622950E-1,-5.407779217E-1,5.001298428E0,8.321339607E0,9.723688579E0
5.707653160E-1,-5.694918036E-1,4.994120121E0,8.316554070E0,9.717542297E0
5.731681810E-1,-5.431707501E-1,4.972584724E0,8.314161301E0,9.702933136E0
5.755712020E-1,-5.814558864E-1,4.996512890E0,8.299804688E0,9.705152748E0
5.779749520E-1,-5.575276613E-1,4.998905659E0,8.309375763E0,9.713167375E0
5.803770350E-1,-5.694918036E-1,5.008476734E0,8.306982994E0,9.716744649E0
5.827800560E-1,-5.838487148E-1,5.015655518E0,8.297411919E0,9.713121236E0
5.851837540E-1,-5.742774606E-1,4.989334106E0,8.295019150E0,9.696937255E0
5.875858890E-1,-5.718846321E-1,5.022833824E0,8.290233612E0,9.709988929E0
5.899889100E-1,-5.766702294E-1,5.001298428E0,8.275876045E0,9.686880759E0
5.923917740E-1,-5.479564071E-1,5.015655518E0,8.266304970E0,9.684464588E0
5.947947950E-1,-5.670989752E-1,5.018048286E0,8.259126663E0,9.680680921E0
5.971985450E-1,-5.455635786E-1,5.015655518E0,8.254341125E0,9.674119459E0
5.996006290E-1,-5.503492355E-1,5.020441055E0,8.256733894E0,9.678913538E0
6.020036490E-1,-5.288137794E-1,5.027619362E0,8.237590790E0,9.665117820E0
6.044073470E-1,-5.359922647E-1,5.015655518E0,8.249555588E0,9.669501299E0
6.068094830E-1,-5.335994363E-1,5.015655518E0,8.244769096E0,9.665285618E0
6.092125040E-1,-5.144568682E-1,5.018048286E0,8.230412483E0,9.653246299E0
6.116153680E-1,-4.881358147E-1,5.010869503E0,8.230412483E0,9.648149014E0
6.140183890E-1,-4.857429862E-1,5.010869503E0,8.244769096E0,9.660278302E0
6.164221390E-1,-4.905286431E-1,5.020441055E0,8.256733894E0,9.675696427E0
6.188242220E-1,-4.785645306E-1,5.010869503E0,8.266304970E0,9.678307447E0
6.212272430E-1,-4.498506486E-1,5.013262749E0,8.256733894E0,9.669996049E0
6.236309410E-1,-4.881358147E-1,5.022833824E0,8.268697739E0,9.687027330E0
6.260330770E-1,-4.929214716E-1,5.030012131E0,8.268697739E0,9.690993546E0
6.284360970E-1,-4.881358147E-1,5.006083965E0,8.268697739E0,9.678352935E0
6.308389620E-1,-4.833501875E-1,4.986941338E0,8.283054352E0,9.680506221E0
6.332419830E-1,-4.881358147E-1,5.010869503E0,8.278268814E0,9.689005331E0
6.356457330E-1,-5.000999570E-1,4.986941338E0,8.283054352E0,9.681356995E0
6.380478160E-1,-4.905286431E-1,5.003691196E0,8.316554070E0,9.718159061E0
6.404508370E-1,-5.240281820E-1,5.003691196E0,8.326125145E0,9.728098018E0
6.428545350E-1,-5.383850932E-1,4.994120121E0,8.330910683E0,9.728060809E0
6.452566700E-1,-5.192425251E-1,5.006083965E0,8.347661018E0,9.747509115E0
6.476596910E-1,-5.479564071E-1,4.994120121E0,8.352446556E0,9.747043422E0
6.500625560E-1,-5.407779217E-1,4.972584724E0,8.347661018E0,9.731520132E0
6.524655770E-1,-5.359922647E-1,4.982155800E0,8.354839325E0,9.742304875E0
6.548693270E-1,-5.455635786E-1,4.979763031E0,8.378767967E0,9.762142803E0
6.572714100E-1,-5.503492355E-1,4.984548569E0,8.371588707E0,9.758693877E0
6.596744310E-1,-5.431707501E-1,4.989334106E0,8.376375198E0,9.764842587E0
6.620781290E-1,-5.383850932E-1,4.994120121E0,8.390731812E0,9.779339171E0
6.644802640E-1,-5.599204898E-1,4.955834866E0,8.390731812E0,9.761054784E0
6.668832850E-1,-5.670989752E-1,4.994120121E0,8.407481194E0,9.795334453E0
6.692861490E-1,-5.766702294E-1,4.979763031E0,8.419445992E0,9.798860097E0
6.716891700E-1,-5.647061467E-1,4.974977493E0,8.409873962E0,9.787506023E0
6.740929200E-1,-5.431707501E-1,4.974977493E0,8.417053223E0,9.792457326E0
6.764950040E-1,-5.479564071E-1,4.996512890E0,8.412266731E0,9.799572891E0
6.788980240E-1,-5.383850932E-1,4.991727352E0,8.417053223E0,9.800713516E0
6.813017740E-1,-5.455635786E-1,5.006083965E0,8.402695656E0,9.796112013E0
6.837038580E-1,-5.527420044E-1,5.006083965E0,8.412266731E0,9.804724981E0
6.861068790E-1,-5.479564071E-1,5.001298428E0,8.417053223E0,9.806121921E0
6.885097430E-1,-5.407779217E-1,5.003691196E0,8.414659500E0,9.804889640E0
6.909127640E-1,-5.335994363E-1,5.008476734E0,8.417053223E0,9.808993450E0
6.933165140E-1,-5.455635786E-1,5.001298428E0,8.412266731E0,9.801880286E0
6.957185970E-1,-5.479564071E-1,5.010869503E0,8.417053223E0,9.811006796E0
6.981216180E-1,-5.503492355E-1,5.020441055E0,8.421838760E0,9.820136495E0
7.005253680E-1,-5.359922647E-1,5.030012131E0,8.429017067E0,9.830393606E0
7.029274520E-1,-5.144568682E-1,5.027619362E0,8.412266731E0,9.813656499E0
7.053304720E-1,-5.383850932E-1,5.020441055E0,8.429017067E0,9.825630545E0
7.077333370E-1,-5.479564071E-1,5.034798145E0,8.421838760E0,9.827350441E0
7.101363580E-1,-5.599204898E-1,5.022833824E0,8.409873962E0,9.811643626E0
7.125401080E-1,-5.694918036E-1,5.058726311E0,8.445766449E0,9.861338840E0
7.149421910E-1,-5.670989752E-1,5.041976452E0,8.407481194E0,9.819820152E0
7.173452120E-1,-5.575276613E-1,5.030012131E0,8.417053223E0,9.821336166E0
7.197489620E-1,-5.766702294E-1,5.041976452E0,8.417053223E0,9.828573653E0
7.221510450E-1,-5.862415433E-1,5.022833824E0,8.409873962E0,9.813180872E0
7.245540660E-1,-6.029912829E-1,5.025226593E0,8.419445992E0,9.823623140E0
7.269569310E-1,-6.053841114E-1,5.013262749E0,8.400302887E0,9.801243896E0
7.293599520E-1,-6.388836503E-1,5.013262749E0,8.414659500E0,9.815674720E0
7.317637020E-1,-6.221339107E-1,5.008476734E0,8.421838760E0,9.818312376E0
7.341657850E-1,-6.173482537E-1,5.010869503E0,8.402695656E0,9.802817265E0
7.365688060E-1,-6.484549642E-1,5.006083965E0,8.419445992E0,9.816742908E0
7.389725560E-1,-6.317051649E-1,5.025226593E0,8.402695656E0,9.811077821E0
7.413746390E-1,-6.101697683E-1,5.006083965E0,8.400302887E0,9.797870810E0
7.437776600E-1,-6.125625968E-1,5.010869503E0,8.433802605E0,9.829194905E0
7.461806290E-1,-6.221339107E-1,5.010869503E0,8.407481194E0,9.807222023E0
7.485834930E-1,-5.982056856E-1,5.008476734E0,8.402695656E0,9.800407314E0
7.509872950E-1,-5.694918036E-1,4.984548569E0,8.400302887E0,9.784433246E0
7.533893790E-1,-5.575276613E-1,4.989334106E0,8.405088425E0,9.790291280E0
7.557923990E-1,-5.718846321E-1,4.984548569E0,8.385946274E0,9.772250067E0
7.581961490E-1,-5.766702294E-1,4.972584724E0,8.407481194E0,9.784931651E0
7.605982330E-1,-5.647061467E-1,4.965405941E0,8.417053223E0,9.788816790E0
7.630012540E-1,-5.359922647E-1,4.934299469E0,8.412266731E0,9.767334873E0
7.654042220E-1,-5.144568682E-1,4.946263313E0,8.400302887E0,9.761929893E0
7.678070870E-1,-5.383850932E-1,4.943870544E0,8.395517349E0,9.757890450E0
7.702108890E-1,-5.431707501E-1,4.960620403E0,8.393124580E0,9.764595715E0
7.726130240E-1,-5.144568682E-1,4.943870544E0,8.381160736E0,9.744248412E0
7.750159930E-1,-5.264210105E-1,4.943870544E0,8.397910118E0,9.759296562E0
7.774197430E-1,-5.288137794E-1,4.941477776E0,8.400302887E0,9.760273316E0
7.798218270E-1,-5.096712112E-1,4.960620403E0,8.385946274E0,9.756619006E0
7.822248470E-1,-5.144568682E-1,4.953442097E0,8.385946274E0,9.753222513E0
7.846278160E-1,-5.072783828E-1,4.965405941E0,8.385946274E0,9.758928344E0
7.870306810E-1,-5.048855543E-1,4.958227634E0,8.402695656E0,9.769556028E0
7.894344830E-1,-5.000999570E-1,4.970191956E0,8.383553505E0,9.758938334E0
7.918366180E-1,-5.216353536E-1,4.963013172E0,8.373981476E0,9.748187983E0
7.942395870E-1,-5.120640397E-1,4.970191956E0,8.383553505E0,9.759558752E0
7.966433370E-1,-5.240281820E-1,4.963013172E0,8.373981476E0,9.748316318E0
7.990454200E-1,-5.383850932E-1,4.967798710E0,8.359624863E0,9.739209946E0
8.014484410E-1,-5.048855543E-1,4.984548569E0,8.373981476E0,9.758288765E0
8.038514100E-1,-5.312066078E-1,4.977370262E0,8.354839325E0,9.739596261E0
8.062542740E-1,-5.407779217E-1,4.979763031E0,8.381160736E0,9.763930351E0
8.086580770E-1,-5.240281820E-1,4.977370262E0,8.388339043E0,9.767960491E0
8.110602120E-1,-5.288137794E-1,4.986941338E0,8.381160736E0,9.766938272E0
8.134631810E-1,-5.096712112E-1,5.006083965E0,8.381160736E0,9.775709524E0
8.158669310E-1,-5.120640397E-1,4.986941338E0,8.366803169E0,9.753726916E0
8.182690660E-1,-5.264210105E-1,4.984548569E0,8.393124580E0,9.775857187E0
8.206720350E-1,-4.857429862E-1,4.982155800E0,8.400302887E0,9.778696808E0
8.230750040E-1,-4.713860750E-1,4.972584724E0,8.407481194E0,9.779291574E0
8.254778680E-1,-4.833501875E-1,4.982155800E0,8.393124580E0,9.772412396E0
8.278816700E-1,-5.120640397E-1,4.970191956E0,8.405088425E0,9.778063667E0
8.302838060E-1,-4.833501875E-1,4.951049328E0,8.407481194E0,9.768943488E0
8.326867740E-1,-4.953143001E-1,4.960620403E0,8.390731812E0,9.759993411E0
8.350905240E-1,-4.905286431E-1,4.922335148E0,8.402695656E0,9.750656180E0
8.374926600E-1,-4.929214716E-1,4.924727917E0,8.393124580E0,9.743739367E0
8.398956290E-1,-4.905286431E-1,4.903192520E0,8.402695656E0,9.741006597E0
8.422985970E-1,-5.048855543E-1,4.879264355E0,8.378767967E0,9.709061886E0
8.447015660E-1,-5.024927258E-1,4.891228676E0,8.376375198E0,9.712892379E0
8.471052640E-1,-5.288137794E-1,4.893621445E0,8.390731812E0,9.727875163E0
8.495073990E-1,-5.072783828E-1,4.888835907E0,8.388339043E0,9.722256928E0
8.519104200E-1,-4.929214716E-1,4.896014214E0,8.381160736E0,9.718939348E0
8.543141180E-1,-4.905286431E-1,4.872086048E0,8.400302887E0,9.723318847E0
8.567162540E-1,-5.024927258E-1,4.905585289E0,8.397910118E0,9.738693974E0
8.591192220E-1,-4.857429862E-1,4.886443138E0,8.383553505E0,9.715824317E0
8.615221910E-1,-4.522434771E-1,4.893621445E0,8.378767967E0,9.713691762E0
8.639251600E-1,-4.809573591E-1,4.919942379E0,8.402695656E0,9.748971601E0
8.663288580E-1,-4.642075896E-1,4.912764072E0,8.390731812E0,9.734224152E0
8.687309930E-1,-4.785645306E-1,4.958227634E0,8.381160736E0,9.749712845E0
8.711340140E-1,-4.689932466E-1,4.951049328E0,8.369195938E0,9.735311231E0
8.735377120E-1,-4.761717021E-1,4.958227634E0,8.388339043E0,9.755767149E0
8.759398470E-1,-4.761717021E-1,4.963013172E0,8.362017632E0,9.735583090E0
8.783428680E-1,-4.546363056E-1,4.960620403E0,8.376375198E0,9.745671368E0
8.807457330E-1,-4.809573591E-1,4.974977493E0,8.362017632E0,9.741922804E0
8.831487540E-1,-4.929214716E-1,4.986941338E0,8.359624863E0,9.746583162E0
8.855525040E-1,-4.953143001E-1,5.013262749E0,8.373981476E0,9.772497398E0
8.879545870E-1,-4.953143001E-1,5.001298428E0,8.335697174E0,9.733558938E0
8.903576080E-1,-5.048855543E-1,5.013262749E0,8.369195938E0,9.768887012E0
8.927613060E-1,-5.072783828E-1,5.020441055E0,8.357232094E0,9.762452971E0
8.951634410E-1,-5.192425251E-1,5.027619362E0,8.354839325E0,9.764727820E0
8.975664620E-1,-5.359922647E-1,5.015655518E0,8.359624863E0,9.763575975E0
8.999693270E-1,-5.503492355E-1,5.015655518E0,8.352446556E0,9.758229759E0
9.023723470E-1,-5.694918036E-1,5.027619362E0,8.342875481E0,9.757297200E0
9.047760970E-1,-5.335994363E-1,5.030012131E0,8.369195938E0,9.779017898E0
9.071781810E-1,-5.551348329E-1,5.039583683E0,8.369195938E0,9.785142770E0
9.095812020E-1,-5.647061467E-1,5.022833824E0,8.364410400E0,9.772978768E0
9.119849520E-1,-5.838487148E-1,5.022833824E0,8.383553505E0,9.790490709E0
9.143870350E-1,-5.934200287E-1,5.025226593E0,8.409873962E0,9.814837223E0
9.167900560E-1,-5.958128572E-1,5.030012131E0,8.409873962E0,9.817433222E0
9.191930240E-1,-6.149554253E-1,5.037190914E0,8.390731812E0,9.805908566E0
9.215958890E-1,-6.125625968E-1,5.018048286E0,8.405088425E0,9.808239035E0
9.239996910E-1,-6.125625968E-1,5.022833824E0,8.414659500E0,9.818889299E0
9.264017740E-1,-6.149554253E-1,5.027619362E0,8.429017067E0,9.833791504E0
9.288047950E-1,-6.293123364E-1,5.018048286E0,8.445766449E0,9.844176630E0
9.312085450E-1,-6.053841114E-1,5.013262749E0,8.464909554E0,9.856672210E0
9.336106290E-1,-6.436693072E-1,5.001298428E0,8.436195374E0,9.828361436E0
9.360136490E-1,-6.412764788E-1,5.018048286E0,8.477172852E0,9.871904765E0
9.384166180E-1,-6.221339107E-1,4.986941338E0,8.462516785E0,9.842297742E0
9.408194830E-1,-6.604190469E-1,4.998905659E0,8.438588142E0,9.830309300E0
9.432232850E-1,-6.221339107E-1,4.989334106E0,8.455337524E0,9.837338974E0
9.456254200E-1,-6.197410822E-1,4.998905659E0,8.464909554E0,9.850270582E0
9.480283890E-1,-6.101697683E-1,4.994120121E0,8.481958389E0,9.861904534E0
9.504321390E-1,-6.293123364E-1,5.013262749E0,8.464909554E0,9.858170781E0
9.528342740E-1,-6.293123364E-1,5.001298428E0,8.472386360E0,9.858516654E0
9.552372430E-1,-6.340979934E-1,5.013262749E0,8.477172852E0,9.869009231E0
9.576402120E-1,-6.173482537E-1,4.977370262E0,8.479565620E0,9.851820477E0
9.600431810E-1,-6.580262184E-1,4.967798710E0,8.469993591E0,9.841382726E0
9.624468790E-1,-6.317051649E-1,5.003691196E0,8.460124016E0,9.849348982E0
9.648490140E-1,-6.149554253E-1,4.977370262E0,8.464909554E0,9.839058830E0
9.672519830E-1,-6.508477330E-1,4.984548569E0,8.467600822E0,9.847313892E0
9.696557330E-1,-6.388836503E-1,4.970191956E0,8.472386360E0,9.843389204E0
9.720578680E-1,-6.125625968E-1,4.967798710E0,8.462516785E0,9.832011355E0
9.744608370E-1,-6.364908218E-1,4.986941338E0,8.460124016E0,9.841158612E0
9.768638060E-1,-6.269195080E-1,4.965405941E0,8.443373680E0,9.815235266E0
9.792667740E-1,-6.245267391E-1,4.972584724E0,8.469993591E0,9.841616937E0
9.816704720E-1,-6.125625968E-1,4.958227634E0,8.464909554E0,9.829239440E0
9.840726080E-1,-6.245267391E-1,4.963013172E0,8.472386360E0,9.838844649E0
9.864756290E-1,-6.269195080E-1,4.965405941E0,8.474779129E0,9.842264247E0
9.888793270E-1,-6.149554253E-1,4.953442097E0,8.462516785E0,9.824914713E0
9.912814620E-1,-6.149554253E-1,4.960620403E0,8.455337524E0,9.822354993E0
9.936844310E-1,-5.910272002E-1,4.955834866E0,8.433802605E0,9.799930548E0
9.960873990E-1,-5.958128572E-1,4.936692238E0,8.436195374E0,9.792615360E0
9.984903680E-1,-6.005984545E-1,4.946263313E0,8.457730293E0,9.816284479E0
1.000894066E0,-6.077769399E-1,4.934299469E0,8.445766449E0,9.800391572E0
1.003296202E0,-6.005984545E-1,4.946263313E0,8.429017067E0,9.791555953E0
1.005699222E0,-5.862415433E-1,4.939085007E0,8.452944756E0,9.807676325E0
1.008102920E0,-5.862415433E-1,4.931906700E0,8.462516785E0,9.812317421E0
1.010505056E0,-5.910272002E-1,4.917549610E0,8.448159218E0,9.793007786E0
1.012908077E0,-5.766702294E-1,4.924727917E0,8.452944756E0,9.799886155E0
1.015310941E0,-5.670989752E-1,4.912764072E0,8.450551987E0,9.791255331E0
1.017713962E0,-5.694918036E-1,4.910371304E0,8.467600822E0,9.804913612E0
1.020117712E0,-5.551348329E-1,4.922335148E0,8.448159218E0,9.793311603E0
1.022519795E0,-5.288137794E-1,4.915156841E0,8.464909554E0,9.802709041E0
1.024922816E0,-5.168496966E-1,4.907978535E0,8.455337524E0,9.790205287E0
1.027326566E0,-4.833501875E-1,4.903192520E0,8.460124016E0,9.790230981E0
1.029728649E0,-4.737788737E-1,4.907978535E0,8.440980911E0,9.775626755E0
1.032131670E0,-4.642075896E-1,4.879264355E0,8.433802605E0,9.754575117E0
1.034534639E0,-4.426721931E-1,4.891228676E0,8.445766449E0,9.769905196E0
1.036937504E0,-4.618147612E-1,4.888835907E0,8.429017067E0,9.755117535E0
1.039341306E0,-4.522434771E-1,4.872086048E0,8.424231529E0,9.742146759E0
1.041743441E0,-4.256233275E-1,4.881657124E0,8.412266731E0,9.735397426E0
1.044146410E0,-4.280161560E-1,4.855336189E0,8.400302887E0,9.711981051E0
1.046550160E0,-4.232304990E-1,4.862514496E0,8.381160736E0,9.698815730E0
1.048952295E0,-4.184448719E-1,4.831408024E0,8.371588707E0,9.674765996E0
1.051355264E0,-4.112663865E-1,4.802694321E0,8.383553505E0,9.670521297E0
1.053758233E0,-3.921238184E-1,4.809872627E0,8.357232094E0,9.650490353E0
1.056161097E0,-3.825525343E-1,4.809872627E0,8.357232094E0,9.650106186E0
1.058564899E0,-3.969094455E-1,4.807479858E0,8.333304405E0,9.628777804E0
1.060967035E0,-4.016951025E-1,4.838586330E0,8.299804688E0,9.615614098E0
1.063370056E0,-4.088735580E-1,4.831408024E0,8.306982994E0,9.618505473E0
1.065773754E0,-3.825525343E-1,4.817050934E0,8.314161301E0,9.616423674E0
1.068175889E0,-3.945166469E-1,4.831408024E0,8.299804688E0,9.611706650E0
1.070578858E0,-4.136592150E-1,4.845765114E0,8.321339607E0,9.638321760E0
1.072981827E0,-4.184448719E-1,4.869693279E0,8.326125145E0,9.654707073E0
1.075384795E0,-4.450650215E-1,4.869693279E0,8.321339607E0,9.651771255E0
1.077788493E0,-4.280161560E-1,4.881657124E0,8.333304405E0,9.667354158E0
1.080190629E0,-4.402793646E-1,4.888835907E0,8.352446556E0,9.688030033E0
1.082593649E0,-4.570291340E-1,4.888835907E0,8.362017632E0,9.697057854E0
1.084997347E0,-4.522434771E-1,4.910371304E0,8.381160736E0,9.724203093E0
1.087399483E0,-4.881358147E-1,4.905585289E0,8.407481194E0,9.746218940E0
1.089802504E0,-5.048855543E-1,4.900799751E0,8.397910118E0,9.736408063E0
1.092205368E0,-5.144568682E-1,4.905585289E0,8.405088425E0,9.745508931E0
1.094608389E0,-5.216353536E-1,4.907978535E0,8.417053223E0,9.757414703E0
1.097012139E0,-5.455635786E-1,4.907978535E0,8.448159218E0,9.785565241E0
1.099414222E0,-5.312066078E-1,4.896014214E0,8.452944756E0,9.782914222E0
1.101817243E0,-5.503492355E-1,4.900799751E0,8.452944756E0,9.786367943E0
1.104220993E0,-5.599204898E-1,4.907978535E0,8.452944756E0,9.790507612E0
1.106623077E0,-5.479564071E-1,4.917549610E0,8.479565620E0,9.817615979E0
1.109026097E0,-5.647061467E-1,4.888835907E0,8.493922234E0,9.816635089E0
1.111429066E0,-5.575276613E-1,4.910371304E0,8.493922234E0,9.826967912E0
1.113831931E0,-5.647061467E-1,4.900799751E0,8.479565620E0,9.810186764E0
1.116235733E0,-5.766702294E-1,4.910371304E0,8.479565620E0,9.815667476E0
1.118637868E0,-5.670989752E-1,4.907978535E0,8.493922234E0,9.826320240E0
1.121040837E0,-5.838487148E-1,4.917549610E0,8.496315002E0,9.834151825E0
1.123444587E0,-5.575276613E-1,4.917549610E0,8.496315002E0,9.832624262E0
1.125846722E0,-5.742774606E-1,4.905585289E0,8.477172852E0,9.811066261E0
1.128249691E0,-5.694918036E-1,4.922335148E0,8.484351158E0,9.825371179E0
1.130652660E0,-5.647061467E-1,4.927121162E0,8.467600822E0,9.813036211E0
1.133055524E0,-5.718846321E-1,4.934299469E0,8.472386360E0,9.821185973E0
1.135459327E0,-5.647061467E-1,4.919942379E0,8.479565620E0,9.819763702E0
1.137861462E0,-5.503492355E-1,4.929513931E0,8.464909554E0,9.811100123E0
1.140264483E0,-5.694918036E-1,4.941477776E0,8.457730293E0,9.812019427E0
1.142668181E0,-5.288137794E-1,4.946263313E0,8.445766449E0,9.801843484E0
1.145070316E0,-5.407779217E-1,4.927121162E0,8.436195374E0,9.784597901E0
1.147473285E0,-5.383850932E-1,4.939085007E0,8.433802605E0,9.788434277E0
1.149876254E0,-5.312066078E-1,4.946263313E0,8.424231529E0,9.783423638E0
1.152279222E0,-5.623133183E-1,4.941477776E0,8.407481194E0,9.768323239E0
1.154682920E0,-5.312066078E-1,4.941477776E0,8.417053223E0,9.774823171E0
1.157085056E0,-5.479564071E-1,4.924727917E0,8.419445992E0,9.769353719E0
1.159488077E0,-5.838487148E-1,4.934299469E0,8.405088425E0,9.763897890E0
1.161891774E0,-5.958128572E-1,4.946263313E0,8.388339043E0,9.756266992E0
1.164293910E0,-5.982056856E-1,4.931906700E0,8.402695656E0,9.761498247E0
1.166696931E0,-5.790630579E-1,4.951049328E0,8.393124580E0,9.761800228E0
1.169099795E0,-6.005984545E-1,4.951049328E0,8.409873962E0,9.777504181E0
1.171502816E0,-5.910272002E-1,4.948656559E0,8.407481194E0,9.773651053E0
1.173906566E0,-5.934200287E-1,4.953442097E0,8.400302887E0,9.770047315E0
1.176308649E0,-6.221339107E-1,4.974977493E0,8.385946274E0,9.770442496E0
1.178711670E0,-5.934200287E-1,4.979763031E0,8.421838760E0,9.801915898E0
1.181115420E0,-6.029912829E-1,4.979763031E0,8.407481194E0,9.790167432E0
1.183517504E0,-6.101697683E-1,4.991727352E0,8.419445992E0,9.806973025E0
1.185920524E0,-6.245267391E-1,4.994120121E0,8.414659500E0,9.804986687E0
1.188323493E0,-6.412764788E-1,5.001298428E0,8.412266731E0,9.807673172E0
1.190726358E0,-6.364908218E-1,4.982155800E0,8.438588142E0,9.820222341E0
1.193130160E0,-6.364908218E-1,4.986941338E0,8.424231529E0,9.810320144E0
1.195532295E0,-6.293123364E-1,5.001298428E0,8.433802605E0,9.825377670E0
1.197935264E0,-6.460621357E-1,4.974977493E0,8.474779129E0,9.848333800E0
1.200339014E0,-6.556333899E-1,4.996512890E0,8.462516785E0,9.849324166E0
1.202741149E0,-6.675975323E-1,4.994120121E0,8.484351158E0,9.867681431E0
1.205144118E0,-6.699903607E-1,4.996512890E0,8.462516785E0,9.850290274E0
1.207547087E0,-6.939185858E-1,4.974977493E0,8.474779129E0,9.851588976E0
1.209950056E0,-6.771687865E-1,4.965405941E0,8.484351158E0,9.853833178E0
1.212353754E0,-6.843472719E-1,4.965405941E0,8.489136696E0,9.858449634E0
1.214755889E0,-6.891329288E-1,4.982155800E0,8.498707771E0,9.875465275E0
1.217158910E0,-6.939185858E-1,4.979763031E0,8.496315002E0,9.872534197E0
1.219562608E0,-6.843472719E-1,4.943870544E0,8.493922234E0,9.851746143E0
1.221964743E0,-6.891329288E-1,4.958227634E0,8.534600258E0,9.894358344E0
1.224367764E0,-6.723831892E-1,4.946263313E0,8.503493309E0,9.860376178E0
1.226770629E0,-6.795616150E-1,4.951049328E0,8.498707771E0,9.859144345E0
1.229173649E0,-6.747759581E-1,4.948656559E0,8.520243645E0,9.876187326E0
1.231577399E0,-6.556333899E-1,4.951049328E0,8.491529465E0,9.851335810E0
1.233979483E0,-6.508477330E-1,4.967798710E0,8.510671616E0,9.875938342E0
1.236382504E0,-6.412764788E-1,4.953442097E0,8.510671616E0,9.868097865E0
1.238786254E0,-6.364908218E-1,4.936692238E0,8.489136696E0,9.840807521E0
1.241188337E0,-6.340979934E-1,4.951049328E0,8.484351158E0,9.843738329E0
1.243591358E0,-6.556333899E-1,4.936692238E0,8.481958389E0,9.835873297E0
1.245994327E0,-6.245267391E-1,4.929513931E0,8.467600822E0,9.817861526E0
1.248397191E0,-6.029912829E-1,4.924727917E0,8.464909554E0,9.811790728E0
1.250800993E0,-6.029912829E-1,4.929513931E0,8.464909554E0,9.814193794E0
1.253203129E0,-5.766702294E-1,4.946263313E0,8.443373680E0,9.802480728E0
1.255606097E0,-5.910272002E-1,4.922335148E0,8.452944756E0,9.799539351E0
1.258009847E0,-5.766702294E-1,4.936692238E0,8.445766449E0,9.799716818E0
1.260411983E0,-5.575276613E-1,4.922335148E0,8.450551987E0,9.795511691E0
1.262814952E0,-5.647061467E-1,4.946263313E0,8.414659500E0,9.777060310E0
1.265217920E0,-5.647061467E-1,4.922335148E0,8.409873962E0,9.760853262E0
1.267620889E0,-5.503492355E-1,4.936692238E0,8.393124580E0,9.752863926E0
1.270024587E0,-5.551348329E-1,4.912764072E0,8.345268250E0,9.699841631E0
1.272426722E0,-5.647061467E-1,4.941477776E0,8.342875481E0,9.712912381E0
1.274829743E0,-5.527420044E-1,4.922335148E0,8.347661018E0,9.706613802E0
1.277233441E0,-5.647061467E-1,4.912764072E0,8.328517914E0,9.685987534E0
1.279635577E0,-5.383850932E-1,4.922335148E0,8.328517914E0,9.689347370E0
1.282038597E0,-5.575276613E-1,4.898406982E0,8.316554070E0,9.668003912E0
1.284441462E0,-5.527420044E-1,4.900799751E0,8.340482712E0,9.689531144E0
1.286844483E0,-5.407779217E-1,4.898406982E0,8.323732376E0,9.673228644E0
1.289248233E0,-5.407779217E-1,4.905585289E0,8.338089943E0,9.689218322E0
1.291650316E0,-5.383850932E-1,4.896014214E0,8.330910683E0,9.678062125E0
1.294053337E0,-5.264210105E-1,4.896014214E0,8.323732376E0,9.671225100E0
1.296457087E0,-5.096712112E-1,4.917549610E0,8.328517914E0,9.685363677E0
1.298859170E0,-5.455635786E-1,4.905585289E0,8.350053787E0,9.699783755E0
1.301262191E0,-5.192425251E-1,4.893621445E0,8.373981476E0,9.712914568E0
1.303665160E0,-5.168496966E-1,4.898406982E0,8.381160736E0,9.721387754E0
1.306068024E0,-5.335994363E-1,4.917549610E0,8.383553505E0,9.734012117E0
1.308471827E0,-5.335994363E-1,4.910371304E0,8.376375198E0,9.724203626E0
1.310873962E0,-5.335994363E-1,4.919942379E0,8.381160736E0,9.733160671E0
1.313276931E0,-5.192425251E-1,4.893621445E0,8.412266731E0,9.745941473E0
1.315680681E0,-5.192425251E-1,4.900799751E0,8.419445992E0,9.755743017E0
1.318082816E0,-5.312066078E-1,4.900799751E0,8.436195374E0,9.770844950E0
1.320485785E0,-5.335994363E-1,4.888835907E0,8.433802605E0,9.762913052E0
1.322888754E0,-5.192425251E-1,4.891228676E0,8.443373680E0,9.771606309E0
1.325291722E0,-5.120640397E-1,4.864907742E0,8.438588142E0,9.753938012E0
1.327695420E0,-5.000999570E-1,4.852943420E0,8.431409836E0,9.741141187E0
1.330097556E0,-5.288137794E-1,4.852943420E0,8.438588142E0,9.748870380E0
1.332500577E0,-5.144568682E-1,4.857728958E0,8.448159218E0,9.758769936E0
1.334904274E0,-4.977070987E-1,4.831408024E0,8.467600822E0,9.761684257E0
1.337306410E0,-5.072783828E-1,4.836193562E0,8.455337524E0,9.753913685E0
1.339709431E0,-4.929214716E-1,4.840979099E0,8.460124016E0,9.759700230E0
1.342112399E0,-4.929214716E-1,4.848157883E0,8.472386360E0,9.773890580E0
1.344515264E0,-4.809573591E-1,4.872086048E0,8.479565620E0,9.791403145E0
1.346919066E0,-4.809573591E-1,4.876871586E0,8.452944756E0,9.770745698E0
1.349321149E0,-4.737788737E-1,4.869693279E0,8.462516785E0,9.775099457E0
1.351724170E0,-4.689932466E-1,4.850550652E0,8.464909554E0,9.767419825E0
1.354127920E0,-4.522434771E-1,4.857728958E0,8.460124016E0,9.766051052E0
1.356530004E0,-4.498506486E-1,4.867300510E0,8.469993591E0,9.779252083E0
1.358933024E0,-4.375874400E-1,4.857728958E0,8.486743927E0,9.788454213E0
1.361335993E0,-4.474578202E-1,4.876871586E0,8.489136696E0,9.800486560E0
1.363738858E0,-4.642075896E-1,4.869693279E0,8.503493309E0,9.810137602E0
1.366142660E0,-4.642075896E-1,4.860121727E0,8.527421951E0,9.826148636E0
1.368544795E0,-4.785645306E-1,4.843372345E0,8.505886078E0,9.799866206E0
1.370947764E0,-4.713860750E-1,4.845765114E0,8.525029182E0,9.817319743E0
1.373351514E0,-4.594219327E-1,4.848157883E0,8.508278847E0,9.803392897E0
1.375753649E0,-4.618147612E-1,4.831408024E0,8.491529465E0,9.780687553E0
1.378156618E0,-4.785645306E-1,4.836193562E0,8.539385796E0,9.825421209E0
1.380559587E0,-4.977070987E-1,4.812265396E0,8.558527946E0,9.831277191E0
1.382962556E0,-5.096712112E-1,4.826622486E0,8.525029182E0,9.809799790E0
1.385366306E0,-5.216353536E-1,4.833800793E0,8.546564102E0,9.832674687E0
1.387768389E0,-5.216353536E-1,4.812265396E0,8.536993027E0,9.813778662E0
1.390171410E0,-5.288137794E-1,4.824229717E0,8.546564102E0,9.828356644E0
1.392575160E0,-5.144568682E-1,4.843372345E0,8.565707207E0,9.853642042E0
1.394977243E0,-5.168496966E-1,4.821836948E0,8.556135178E0,9.834871344E0
1.397380264E0,-4.953143001E-1,4.831408024E0,8.548956871E0,9.832217620E0
1.399783233E0,-5.024927258E-1,4.829015255E0,8.544171333E0,9.827245344E0
1.402186097E0,-5.024927258E-1,4.819443703E0,8.536993027E0,9.816302078E0
1.404589899E0,-5.096712112E-1,4.831408024E0,8.558527946E0,9.841273741E0
1.406992035E0,-5.120640397E-1,4.831408024E0,8.527421951E0,9.814358777E0
1.409395004E0,-4.977070987E-1,4.833800793E0,8.532207489E0,9.818956518E0
1.411798754E0,-4.953143001E-1,4.829015255E0,8.536993027E0,9.820640230E0
1.414200889E0,-5.120640397E-1,4.809872627E0,8.513064384E0,9.791289470E0
1.416603858E0,-5.000999570E-1,4.831408024E0,8.527421951E0,9.813741824E0
1.419006827E0,-5.072783828E-1,4.824229717E0,8.510671616E0,9.796022411E0
1.421409795E0,-5.024927258E-1,4.840979099E0,8.515457153E0,9.808189849E0
1.423813493E0,-5.216353536E-1,4.840979099E0,8.517850876E0,9.811267279E0
1.426215629E0,-4.953143001E-1,4.838586330E0,8.496315002E0,9.790026688E0
1.428618649E0,-5.216353536E-1,4.845765114E0,8.508278847E0,9.805322632E0
1.431022347E0,-5.120640397E-1,4.860121727E0,8.510671616E0,9.813996338E0
1.433424483E0,-5.168496966E-1,4.862514496E0,8.491529465E0,9.798839395E0
1.435827504E0,-5.455635786E-1,4.860121727E0,8.510671616E0,9.815801249E0
1.438230472E0,-5.192425251E-1,4.850550652E0,8.515457153E0,9.813789531E0
1.440633441E0,-5.623133183E-1,4.857728958E0,8.503493309E0,9.809338681E0
1.443037139E0,-5.551348329E-1,4.876871586E0,8.522636414E0,9.835008011E0
1.445439222E0,-5.742774606E-1,4.867300510E0,8.508278847E0,9.818921417E0
1.447842243E0,-5.886343718E-1,4.860121727E0,8.508278847E0,9.816215287E0
1.450245993E0,-5.958128572E-1,4.864907742E0,8.517850876E0,9.827314172E0
1.452648129E0,-6.077769399E-1,4.864907742E0,8.534600258E0,9.842566825E0
1.455051097E0,-6.125625968E-1,4.850550652E0,8.534600258E0,9.835775319E0
1.457454066E0,-6.173482537E-1,4.848157883E0,8.510671616E0,9.814137001E0
1.459857035E0,-6.388836503E-1,4.838586330E0,8.517850876E0,9.817019585E0
1.462260733E0,-6.245267391E-1,4.831408024E0,8.513064384E0,9.808404679E0
1.464662868E0,-6.197410822E-1,4.833800793E0,8.498707771E0,9.796823102E0
1.467065889E0,-6.364908218E-1,4.838586330E0,8.493922234E0,9.796109082E0
1.469469587E0,-6.317051649E-1,4.848157883E0,8.522636414E0,9.825427101E0
1.471871722E0,-6.317051649E-1,4.826622486E0,8.505886078E0,9.800277241E0
1.474274743E0,-6.388836503E-1,4.860121727E0,8.517850876E0,9.827651757E0
1.476677608E0,-6.125625968E-1,4.843372345E0,8.496315002E0,9.799023279E0
1.479080629E0,-6.125625968E-1,4.850550652E0,8.510671616E0,9.815019404E0
1.481484379E0,-6.364908218E-1,4.829015255E0,8.505886078E0,9.801765498E0
1.483886514E0,-6.077769399E-1,4.848157883E0,8.496315002E0,9.801091586E0
1.486289483E0,-6.221339107E-1,4.840979099E0,8.455337524E0,9.762933058E0
1.488693233E0,-5.958128572E-1,4.838586330E0,8.448159218E0,9.753886651E0
1.491095316E0,-5.814558864E-1,4.862514496E0,8.443373680E0,9.760773395E0
1.493498337E0,-5.431707501E-1,4.855336189E0,8.429017067E0,9.742569101E0
1.495901306E0,-5.575276613E-1,4.852943420E0,8.407481194E0,9.723560919E0
1.498304274E0,-5.647061467E-1,4.860121727E0,8.383553505E0,9.706886504E0
1.500707972E0,-5.359922647E-1,4.852943420E0,8.393124580E0,9.709937578E0
1.503110108E0,-5.335994363E-1,4.867300510E0,8.371588707E0,9.698393686E0
1.505513129E0,-5.216353536E-1,4.862514496E0,8.383553505E0,9.705674631E0
1.507916827E0,-5.288137794E-1,4.845765114E0,8.390731812E0,9.703889111E0
1.510318962E0,-5.359922647E-1,4.840979099E0,8.378767967E0,9.691548844E0
1.512721983E0,-5.599204898E-1,4.864907742E0,8.357232094E0,9.686287553E0
1.515124847E0,-5.431707501E-1,4.862514496E0,8.390731812E0,9.713056266E0
1.517527868E0,-5.718846321E-1,4.857728958E0,8.381160736E0,9.704042351E0
1.519931618E0,-5.862415433E-1,4.852943420E0,8.388339043E0,9.708705932E0
1.522333702E0,-5.670989752E-1,4.850550652E0,8.388339043E0,9.706372894E0
1.524736722E0,-6.053841114E-1,4.855336189E0,8.405088425E0,9.725548358E0
1.527140472E0,-6.053841114E-1,4.869693279E0,8.393124580E0,9.722393881E0
1.529542556E0,-6.149554253E-1,4.855336189E0,8.405088425E0,9.726148833E0
1.531945577E0,-6.269195080E-1,4.840979099E0,8.431409836E0,9.742524238E0
1.534348545E0,-6.317051649E-1,4.850550652E0,8.426624298E0,9.743453705E0
1.536751410E0,-6.460621357E-1,4.855336189E0,8.436195374E0,9.755053981E0
1.539155212E0,-6.412764788E-1,4.864907742E0,8.445766449E0,9.767780391E0
1.541557347E0,-6.604190469E-1,4.857728958E0,8.452944756E0,9.771691716E0
1.543960368E0,-6.699903607E-1,4.845765114E0,8.469993591E0,9.781161386E0
1.546364066E0,-6.987041831E-1,4.848157883E0,8.498707771E0,9.809223016E0
1.548766202E0,-6.987041831E-1,4.857728958E0,8.527421951E0,9.838833432E0
1.551169222E0,-7.082754970E-1,4.874478817E0,8.505886078E0,9.829155400E0
1.553572087E0,-7.010970116E-1,4.850550652E0,8.493922234E0,9.806431234E0
1.555975108E0,-6.963114142E-1,4.867300510E0,8.536993027E0,9.851685835E0
1.558378858E0,-6.819544435E-1,4.848157883E0,8.503493309E0,9.812191151E0
1.560780941E0,-7.010970116E-1,4.864907742E0,8.536993027E0,9.850843329E0
1.563183962E0,-6.771687865E-1,4.852943420E0,8.536993027E0,9.843265075E0
1.565587712E0,-6.699903607E-1,4.852943420E0,8.527421951E0,9.834473654E0
1.567989795E0,-6.699903607E-1,4.838586330E0,8.534600258E0,9.833626306E0
1.570392816E0,-6.628118753E-1,4.860121727E0,8.536993027E0,9.845829204E0
1.572795785E0,-6.580262184E-1,4.860121727E0,8.548956871E0,9.855883790E0
1.575198649E0,-6.628118753E-1,4.845765114E0,8.546564102E0,9.847056264E0
1.577602452E0,-6.436693072E-1,4.872086048E0,8.525029182E0,9.840104430E0
1.580004587E0,-6.317051649E-1,4.838586330E0,8.517850876E0,9.816555029E0
1.582407608E0,-6.412764788E-1,4.845765114E0,8.520243645E0,9.822791193E0
1.584811306E0,-6.412764788E-1,4.805087090E0,8.532207489E0,9.813188172E0
1.587213441E0,-6.699903607E-1,4.833800793E0,8.515457153E0,9.814658818E0
1.589616462E0,-6.484549642E-1,4.833800793E0,8.501100540E0,9.800756825E0
1.592019327E0,-6.460621357E-1,4.817050934E0,8.513064384E0,9.802736414E0
1.594422347E0,-6.532405615E-1,4.831408024E0,8.501100540E0,9.799894750E0
1.596826097E0,-6.484549642E-1,4.838586330E0,8.491529465E0,9.794819251E0
1.599228181E0,-6.652047038E-1,4.836193562E0,8.498707771E0,9.800984606E0
1.601631202E0,-6.556333899E-1,4.852943420E0,8.469993591E0,9.783747054E0
1.604034952E0,-6.484549642E-1,4.862514496E0,8.479565620E0,9.796304108E0
1.606437035E0,-6.604190469E-1,4.836193562E0,8.472386360E0,9.777844963E0
1.608840056E0,-6.580262184E-1,4.838586330E0,8.501100540E0,9.803755738E0
1.611243024E0,-6.388836503E-1,4.845765114E0,8.464909554E0,9.774676752E0
1.613645993E0,-6.699903607E-1,4.848157883E0,8.491529465E0,9.800999673E0
1.616049691E0,-6.628118753E-1,4.852943420E0,8.474779129E0,9.788373752E0
1.618451827E0,-6.675975323E-1,4.855336189E0,8.467600822E0,9.783672095E0
1.620854847E0,-6.556333899E-1,4.867300510E0,8.472386360E0,9.792946443E0
1.623258545E0,-6.747759581E-1,4.867300510E0,8.457730293E0,9.781571375E0
1.625660681E0,-6.747759581E-1,4.888835907E0,8.467600822E0,9.800831741E0
1.628063702E0,-6.699903607E-1,4.874478817E0,8.477172852E0,9.801626925E0
1.630466566E0,-6.604190469E-1,4.872086048E0,8.440980911E0,9.768497045E0
1.632869587E0,-6.556333899E-1,4.879264355E0,8.424231529E0,9.757292280E0
1.635273337E0,-6.484549642E-1,4.886443138E0,8.429017067E0,9.764535273E0
1.637675472E0,-6.747759581E-1,4.874478817E0,8.405088425E0,9.739680578E0
1.640078441E0,-6.484549642E-1,4.874478817E0,8.409873962E0,9.742023283E0
1.642482191E0,-6.580262184E-1,4.869693279E0,8.371588707E0,9.707234859E0
1.644884327E0,-6.675975323E-1,4.876871586E0,8.407481194E0,9.742448509E0
1.647287295E0,-6.364908218E-1,4.881657124E0,8.381160736E0,9.720059265E0
1.649690264E0,-6.364908218E-1,4.896014214E0,8.371588707E0,9.719031496E0
1.652093233E0,-6.173482537E-1,4.867300510E0,8.373981476E0,9.705426260E0
1.654496931E0,-6.269195080E-1,4.872086048E0,8.371588707E0,9.706376667E0
1.656899066E0,-6.149554253E-1,4.848157883E0,8.347661018E0,9.672964877E0
1.659302087E0,-6.029912829E-1,4.855336189E0,8.354839325E0,9.682005378E0
1.661705785E0,-6.149554253E-1,4.864907742E0,8.357232094E0,9.689624646E0
1.664107920E0,-6.077769399E-1,4.860121727E0,8.371588707E0,9.699158391E0
1.666510941E0,-6.005984545E-1,4.860121727E0,8.385946274E0,9.711106869E0
1.668913910E0,-5.742774606E-1,4.869693279E0,8.373981476E0,9.703982327E0
1.671316774E0,-5.838487148E-1,4.862514496E0,8.388339043E0,9.713349496E0
1.673720577E0,-5.886343718E-1,4.852943420E0,8.381160736E0,9.702649409E0
1.676122712E0,-5.766702294E-1,4.848157883E0,8.409873962E0,9.724359283E0
1.678525681E0,-5.647061467E-1,4.845765114E0,8.419445992E0,9.730745263E0
1.680929431E0,-5.742774606E-1,4.824229717E0,8.419445992E0,9.720599661E0
1.683331566E0,-5.838487148E-1,4.838586330E0,8.450551987E0,9.755235819E0
1.685734535E0,-5.814558864E-1,4.831408024E0,8.455337524E0,9.755681785E0
1.688137504E0,-5.718846321E-1,4.814658165E0,8.469993591E0,9.759547977E0
1.690540472E0,-5.742774606E-1,4.824229717E0,8.493922234E0,9.785177662E0
1.692944170E0,-5.742774606E-1,4.824229717E0,8.508278847E0,9.797642364E0
1.695346306E0,-5.742774606E-1,4.821836948E0,8.544171333E0,9.827653328E0
1.697749327E0,-5.814558864E-1,4.814658165E0,8.539385796E0,9.820393778E0
1.700153077E0,-5.910272002E-1,4.821836948E0,8.529814720E0,9.816168492E0
1.702555160E0,-5.886343718E-1,4.788337231E0,8.517850876E0,9.789200550E0
1.704958181E0,-6.053841114E-1,4.785944462E0,8.520243645E0,9.791134055E0
1.707361149E0,-6.077769399E-1,4.785944462E0,8.539385796E0,9.807944074E0
1.709764014E0,-6.053841114E-1,4.790730000E0,8.532207489E0,9.803884357E0
1.712167816E0,-6.053841114E-1,4.783551693E0,8.541778564E0,9.808712340E0
1.714569952E0,-6.101697683E-1,4.793122768E0,8.546564102E0,9.817845536E0
1.716972920E0,-5.838487148E-1,4.785944462E0,8.534600258E0,9.802323463E0
1.719376670E0,-6.149554253E-1,4.773980141E0,8.551349640E0,9.812983095E0
1.721778806E0,-6.197410822E-1,4.788337231E0,8.551349640E0,9.820276631E0
1.724181827E0,-6.101697683E-1,4.776372910E0,8.536993027E0,9.801341503E0
1.726584691E0,-5.886343718E-1,4.783551693E0,8.539385796E0,9.805608956E0
1.728987712E0,-5.742774606E-1,4.793122768E0,8.558527946E0,9.826098976E0
1.731391462E0,-5.766702294E-1,4.783551693E0,8.553742409E0,9.817404165E0
1.733793545E0,-5.503492355E-1,4.800301552E0,8.575278282E0,9.842823624E0
1.736196566E0,-5.670989752E-1,4.776372910E0,8.548956871E0,9.809179527E0
1.738600316E0,-5.575276613E-1,4.781158924E0,8.580063820E0,9.838079737E0
1.741002399E0,-5.575276613E-1,4.788337231E0,8.575278282E0,9.837398444E0
1.743405420E0,-5.431707501E-1,4.769194603E0,8.599205971E0,9.848177240E0
1.745808389E0,-5.240281820E-1,4.747659206E0,8.594420433E0,9.832544740E0
1.748211358E0,-5.264210105E-1,4.764409065E0,8.577671051E0,9.826146421E0
1.750615056E0,-5.240281820E-1,4.752444744E0,8.580063820E0,9.822312952E0
1.753017191E0,-5.144568682E-1,4.745266438E0,8.606385231E0,9.841345750E0
1.755420212E0,-4.833501875E-1,4.733302116E0,8.611170769E0,9.838192839E0
1.757823910E0,-5.096712112E-1,4.723731041E0,8.603992462E0,9.828636018E0
1.760226045E0,-4.833501875E-1,4.721338272E0,8.599205971E0,9.821965476E0
1.762629066E0,-4.857429862E-1,4.695017338E0,8.603992462E0,9.813654790E0
1.765031931E0,-4.737788737E-1,4.706981182E0,8.603992462E0,9.818799548E0
1.767434952E0,-4.905286431E-1,4.718945503E0,8.596813202E0,9.819076445E0
1.769838702E0,-4.833501875E-1,4.723731041E0,8.606385231E0,9.829401258E0
1.772240837E0,-4.618147612E-1,4.721338272E0,8.580063820E0,9.804172740E0
1.774643806E0,-4.689932466E-1,4.738088131E0,8.558527946E0,9.793765078E0
1.777047556E0,-4.232304990E-1,4.728516579E0,8.570492744E0,9.797516980E0
1.779449691E0,-4.546363056E-1,4.714159489E0,8.556135178E0,9.779439812E0
1.781852660E0,-4.642075896E-1,4.728516579E0,8.570492744E0,9.799372613E0
1.784255629E0,-4.402793646E-1,4.728516579E0,8.558527946E0,9.787804430E0
1.786658597E0,-4.474578202E-1,4.735694885E0,8.575278282E0,9.806244040E0
1.789062295E0,-4.666004181E-1,4.740480900E0,8.558527946E0,9.794808611E0
1.791464431E0,-4.546363056E-1,4.747659206E0,8.556135178E0,9.795632256E0
1.793867452E0,-4.737788737E-1,4.766801834E0,8.551349640E0,9.801655310E0
1.796271202E0,-4.737788737E-1,4.750051975E0,8.527421951E0,9.772634513E0
1.798673285E0,-4.881358147E-1,4.771587372E0,8.532207489E0,9.787997101E0
1.801076306E0,-4.953143001E-1,4.766801834E0,8.520243645E0,9.775596542E0
1.803479274E0,-5.264210105E-1,4.778766155E0,8.525029182E0,9.787228801E0
1.805882139E0,-5.455635786E-1,4.762016296E0,8.529814720E0,9.784282191E0
1.808285941E0,-5.599204898E-1,4.776372910E0,8.510671616E0,9.775417151E0
1.810688077E0,-5.814558864E-1,4.795515537E0,8.522636414E0,9.796447910E0
1.813091097E0,-5.982056856E-1,4.807479858E0,8.505886078E0,9.788759401E0
1.815494795E0,-5.838487148E-1,4.805087090E0,8.508278847E0,9.788797178E0
1.817896931E0,-6.005984545E-1,4.809872627E0,8.486743927E0,9.773454644E0
1.820299952E0,-6.197410822E-1,4.805087090E0,8.496315002E0,9.780608855E0
1.822702816E0,-6.317051649E-1,4.817050934E0,8.529814720E0,9.816352188E0
1.825105837E0,-6.340979934E-1,4.809872627E0,8.515457153E0,9.800508430E0
1.827509587E0,-6.699903607E-1,4.817050934E0,8.529814720E0,9.818890260E0
1.829911722E0,-6.652047038E-1,4.800301552E0,8.520243645E0,9.802037750E0
1.832314691E0,-6.628118753E-1,4.819443703E0,8.529814720E0,9.819577198E0
1.834718441E0,-6.795616150E-1,4.836193562E0,8.551349640E0,9.847647070E0
1.837120577E0,-7.154539824E-1,4.838586330E0,8.522636414E0,9.826450199E0
1.839523545E0,-7.082754970E-1,4.833800793E0,8.527421951E0,9.827726564E0
1.841926514E0,-7.082754970E-1,4.829015255E0,8.575278282E0,9.866936715E0
1.844329483E0,-6.843472719E-1,4.833800793E0,8.558527946E0,9.853038207E0
1.846733181E0,-6.987041831E-1,4.840979099E0,8.544171333E0,9.845106904E0
1.849135316E0,-6.915257573E-1,4.850550652E0,8.568099976E0,9.870075313E0
1.851538337E0,-6.939185858E-1,4.869693279E0,8.548956871E0,9.863067435E0
1.853942087E0,-6.867401004E-1,4.852943420E0,8.556135178E0,9.860533504E0
1.856344170E0,-6.747759581E-1,4.867300510E0,8.536993027E0,9.850187145E0
1.858747191E0,-6.388836503E-1,4.876871586E0,8.556135178E0,9.869118398E0
1.861150160E0,-6.532405615E-1,4.874478817E0,8.551349640E0,9.864727448E0
1.863553024E0,-6.364908218E-1,4.893621445E0,8.517850876E0,9.844106610E0
1.865956827E0,-6.293123364E-1,4.893621445E0,8.515457153E0,9.841573827E0
1.868358962E0,-6.293123364E-1,4.886443138E0,8.481958389E0,9.809025368E0
1.870761983E0,-6.340979934E-1,4.896014214E0,8.462516785E0,9.797307068E0
1.873165681E0,-6.149554253E-1,4.876871586E0,8.455337524E0,9.780326134E0
1.875567816E0,-6.029912829E-1,4.900799751E0,8.429017067E0,9.768815967E0
1.877970837E0,-6.101697683E-1,4.898406982E0,8.445766449E0,9.782518542E0
1.880373702E0,-6.029912829E-1,4.881657124E0,8.405088425E0,9.738566947E0
1.882776722E0,-6.197410822E-1,4.893621445E0,8.390731812E0,9.733241505E0
1.885180472E0,-6.053841114E-1,4.891228676E0,8.409873962E0,9.747645251E0
1.887582608E0,-6.293123364E-1,4.888835907E0,8.371588707E0,9.714949718E0
1.889985577E0,-6.293123364E-1,4.903192520E0,8.352446556E0,9.705704219E0
1.892389327E0,-6.269195080E-1,4.884049892E0,8.371588707E0,9.712387394E0
1.894791462E0,-6.245267391E-1,4.872086048E0,8.371588707E0,9.706222416E0
1.897194431E0,-6.125625968E-1,4.872086048E0,8.397910118E0,9.728172991E0
1.899597399E0,-6.125625968E-1,4.869693279E0,8.409873962E0,9.737305871E0
1.902000368E0,-6.317051649E-1,4.864907742E0,8.395517349E0,9.723738495E0
1.904404066E0,-6.173482537E-1,4.862514496E0,8.407481194E0,9.731952841E0
1.906806202E0,-6.317051649E-1,4.855336189E0,8.429017067E0,9.747905911E0
1.909209222E0,-6.197410822E-1,4.874478817E0,8.457730293E0,9.781504202E0
1.911612972E0,-6.245267391E-1,4.862514496E0,8.450551987E0,9.769642253E0
1.914015056E0,-6.317051649E-1,4.855336189E0,8.457730293E0,9.772744888E0
1.916418077E0,-6.245267391E-1,4.817050934E0,8.489136696E0,9.780565177E0
1.918821045E0,-6.293123364E-1,4.824229717E0,8.484351158E0,9.780257714E0
1.921223910E0,-6.197410822E-1,4.838586330E0,8.510671616E0,9.809563091E0
1.923627712E0,-6.484549642E-1,4.824229717E0,8.525029182E0,9.816812556E0
1.926029847E0,-6.436693072E-1,4.805087090E0,8.536993027E0,9.817505898E0
1.928432868E0,-6.340979934E-1,4.797908306E0,8.520243645E0,9.798803812E0
1.930836566E0,-6.293123364E-1,4.781158924E0,8.548956871E0,9.815303269E0
1.933238702E0,-6.436693072E-1,4.783551693E0,8.546564102E0,9.815316344E0
1.935641722E0,-6.221339107E-1,4.783551693E0,8.544171333E0,9.811843923E0
1.938044691E0,-6.029912829E-1,4.769194603E0,8.544171333E0,9.803656431E0
1.940447556E0,-6.245267391E-1,4.776372910E0,8.525029182E0,9.791827939E0
1.942851358E0,-6.029912829E-1,4.781158924E0,8.534600258E0,9.801146908E0
1.945253493E0,-6.029912829E-1,4.790730000E0,8.525029182E0,9.797490239E0
1.947656462E0,-6.029912829E-1,4.754837513E0,8.534600258E0,9.788333864E0
1.950060212E0,-6.101697683E-1,4.754837513E0,8.520243645E0,9.776264045E0
1.952462347E0,-6.125625968E-1,4.764409065E0,8.501100540E0,9.764401521E0
1.954865368E0,-6.101697683E-1,4.762016296E0,8.508278847E0,9.769335458E0
1.957268233E0,-5.814558864E-1,4.752444744E0,8.484351158E0,9.742075578E0
1.959671254E0,-6.029912829E-1,4.773980141E0,8.460124016E0,9.732840450E0
1.962075004E0,-6.149554253E-1,4.766801834E0,8.443373680E0,9.715509714E0
1.964477087E0,-6.053841114E-1,4.773980141E0,8.431409836E0,9.708040385E0
1.966880108E0,-5.958128572E-1,4.754837513E0,8.421838760E0,9.689728626E0
1.969283858E0,-6.029912829E-1,4.773980141E0,8.393124580E0,9.674658914E0
1.971685941E0,-6.005984545E-1,4.795515537E0,8.400302887E0,9.691376392E0
1.974088962E0,-5.934200287E-1,4.807479858E0,8.373981476E0,9.674067173E0
1.976491931E0,-5.862415433E-1,4.773980141E0,8.373981476E0,9.657024971E0
1.978894899E0,-5.982056856E-1,4.807479858E0,8.390731812E0,9.688864379E0
1.981298597E0,-5.886343718E-1,4.809872627E0,8.359624863E0,9.662540709E0
1.983700733E0,-5.838487148E-1,4.800301552E0,8.352446556E0,9.651276485E0
1.986103754E0,-5.814558864E-1,4.802694321E0,8.388339043E0,9.683397936E0
1.988507504E0,-5.790630579E-1,4.812265396E0,8.397910118E0,9.696293447E0
1.990909587E0,-5.862415433E-1,4.824229717E0,8.362017632E0,9.671618809E0
1.993312608E0,-5.982056856E-1,4.797908306E0,8.376375198E0,9.671682150E0
1.995715577E0,-5.814558864E-1,4.807479858E0,8.405088425E0,9.700281695E0
1.998118441E0,-5.862415433E-1,4.795515537E0,8.402695656E0,9.692571522E0
2.000522243E0,-5.766702294E-1,4.795515537E0,8.397910118E0,9.687848687E0
2.002924379E0,-5.958128572E-1,4.778766155E0,8.440980911E0,9.718114924E0
2.005327399E0,-5.790630579E-1,4.740480900E0,8.450551987E0,9.706662767E0
2.007731097E0,-5.982056856E-1,4.742873669E0,8.486743927E0,9.740509389E0
2.010133233E0,-5.862415433E-1,4.742873669E0,8.503493309E0,9.754379952E0
2.012536254E0,-5.718846321E-1,4.730909348E0,8.529814720E0,9.770685465E0
2.014939118E0,-5.814558864E-1,4.726123810E0,8.513064384E0,9.754311991E0
2.017342139E0,-5.838487148E-1,4.735694885E0,8.541778564E0,9.784153842E0
2.019745889E0,-5.694918036E-1,4.716552734E0,8.568099976E0,9.797067306E0
2.022148024E0,-5.694918036E-1,4.718945503E0,8.606385231E0,9.831715736E0
2.024550993E0,-5.742774606E-1,4.740480900E0,8.606385231E0,9.842348323E0
2.026954743E0,-5.599204898E-1,4.718945503E0,8.608778000E0,9.833260714E0
2.029356879E0,-5.670989752E-1,4.711766720E0,8.603992462E0,9.826038528E0
2.031759899E0,-5.551348329E-1,4.704588413E0,8.632705688E0,9.847077451E0
2.034162764E0,-5.838487148E-1,4.690231323E0,8.632705688E0,9.841887862E0
2.036565785E0,-5.575276613E-1,4.678267479E0,8.644669533E0,9.845168106E0
2.038969535E0,-5.862415433E-1,4.678267479E0,8.642276764E0,9.844735315E0
2.041371618E0,-5.766702294E-1,4.673481941E0,8.637491226E0,9.837694684E0
2.043774639E0,-5.814558864E-1,4.699802876E0,8.644669533E0,9.856802187E0
2.046178389E0,-5.479564071E-1,4.697410107E0,8.620741844E0,9.832756881E0
2.048580524E0,-5.599204898E-1,4.695017338E0,8.613563538E0,9.825994890E0
2.050983493E0,-5.647061467E-1,4.695017338E0,8.603992462E0,9.817879971E0
2.053386462E0,-5.718846321E-1,4.690231323E0,8.615956306E0,9.826496068E0
2.055789431E0,-5.551348329E-1,4.704588413E0,8.596813202E0,9.815626524E0
2.058193129E0,-5.431707501E-1,4.738088131E0,8.575278282E0,9.812232734E0
2.060595264E0,-5.335994363E-1,4.723731041E0,8.577671051E0,9.806875342E0
2.062998285E0,-5.503492355E-1,4.747659206E0,8.565707207E0,9.808898622E0
2.065402035E0,-5.312066078E-1,4.721338272E0,8.551349640E0,9.782576154E0
2.067804118E0,-5.455635786E-1,4.740480900E0,8.510671616E0,9.757116896E0
2.070207139E0,-5.479564071E-1,4.742873669E0,8.522636414E0,9.768850408E0
2.072610108E0,-5.264210105E-1,4.733302116E0,8.493922234E0,9.737966056E0
2.075013077E0,-5.503492355E-1,4.759623528E0,8.503493309E0,9.760445628E0
2.077416774E0,-5.407779217E-1,4.762016296E0,8.462516785E0,9.725401292E0
2.079818910E0,-5.455635786E-1,4.762016296E0,8.436195374E0,9.702774408E0
2.082221931E0,-5.551348329E-1,4.750051975E0,8.433802605E0,9.695369762E0
2.084625629E0,-5.551348329E-1,4.750051975E0,8.429017067E0,9.691207209E0
2.087027764E0,-5.766702294E-1,4.759623528E0,8.429017067E0,9.697159037E0
2.089430785E0,-5.527420044E-1,4.745266438E0,8.407481194E0,9.669995724E0
2.091833754E0,-5.766702294E-1,4.754837513E0,8.431409836E0,9.696891262E0
2.094236618E0,-5.838487148E-1,4.771587372E0,8.402695656E0,9.680610500E0
2.096640420E0,-5.790630579E-1,4.759623528E0,8.412266731E0,9.682745567E0
2.099042556E0,-5.910272002E-1,4.762016296E0,8.419445992E0,9.690881444E0
2.101445577E0,-5.934200287E-1,4.776372910E0,8.429017067E0,9.706400683E0
2.103849274E0,-5.934200287E-1,4.769194603E0,8.431409836E0,9.704949063E0
2.106251410E0,-5.670989752E-1,4.802694321E0,8.433802605E0,9.721959698E0
2.108654431E0,-5.982056856E-1,4.817050934E0,8.431409836E0,9.728848933E0
2.111057295E0,-6.053841114E-1,4.788337231E0,8.438588142E0,9.721339064E0
2.113460316E0,-6.101697683E-1,4.812265396E0,8.452944756E0,9.745895568E0
2.115864066E0,-6.125625968E-1,4.807479858E0,8.452944756E0,9.743683624E0
2.118266202E0,-6.149554253E-1,4.802694321E0,8.464909554E0,9.751858113E0
2.120669170E0,-6.412764788E-1,4.805087090E0,8.486743927E0,9.773685075E0
2.123072920E0,-6.580262184E-1,4.797908306E0,8.477172852E0,9.762959704E0
2.125475056E0,-6.484549642E-1,4.797908306E0,8.474779129E0,9.760240737E0
2.127878077E0,-6.652047038E-1,4.773980141E0,8.481958389E0,9.755870120E0
2.130280941E0,-6.556333899E-1,4.793122768E0,8.469993591E0,9.754213062E0
2.132683962E0,-6.556333899E-1,4.764409065E0,8.493922234E0,9.760950968E0
2.135087712E0,-6.723831892E-1,4.785944462E0,8.477172852E0,9.758064516E0
2.137489795E0,-6.436693072E-1,4.769194603E0,8.484351158E0,9.754165362E0
2.139892816E0,-6.795616150E-1,4.766801834E0,8.508278847E0,9.776247370E0
2.142296566E0,-6.771687865E-1,4.752444744E0,8.510671616E0,9.771172906E0
2.144698702E0,-6.532405615E-1,4.766801834E0,8.505886078E0,9.772370282E0
2.147101670E0,-6.699903607E-1,4.745266438E0,8.493922234E0,9.752597375E0
2.149504639E0,-6.556333899E-1,4.762016296E0,8.498707771E0,9.763948388E0
2.151907608E0,-6.484549642E-1,4.742873669E0,8.520243645E0,9.772916466E0
2.154311358E0,-6.460621357E-1,4.757230282E0,8.498707771E0,9.760976899E0
2.156713441E0,-6.364908218E-1,4.766801834E0,8.503493309E0,9.769182092E0
2.159116462E0,-6.293123364E-1,4.754837513E0,8.522636414E0,9.779562630E0
2.161520212E0,-6.364908218E-1,4.752444744E0,8.510671616E0,9.768438102E0
2.163922295E0,-6.197410822E-1,4.762016296E0,8.525029182E0,9.784528644E0
2.166325316E0,-6.005984545E-1,4.754837513E0,8.534600258E0,9.788186749E0
2.168728285E0,-5.958128572E-1,4.769194603E0,8.551349640E0,9.809474542E0
2.171131254E0,-5.910272002E-1,4.769194603E0,8.568099976E0,9.823790893E0
2.173534952E0,-6.053841114E-1,4.781158924E0,8.575278282E0,9.836735647E0
2.175937087E0,-6.125625968E-1,4.776372910E0,8.589634895E0,9.847375221E0
2.178340108E0,-5.982056856E-1,4.747659206E0,8.599205971E0,9.840958353E0
2.180743858E0,-6.197410822E-1,4.733302116E0,8.594420433E0,9.831189679E0
2.183145941E0,-5.862415433E-1,4.747659206E0,8.589634895E0,9.831875443E0
2.185548962E0,-6.077769399E-1,4.723731041E0,8.601598740E0,9.832117200E0
2.187951931E0,-6.101697683E-1,4.742873669E0,8.606385231E0,9.845660188E0
2.190354795E0,-6.484549642E-1,4.723731041E0,8.611170769E0,9.843088479E0
2.192758597E0,-6.412764788E-1,4.721338272E0,8.613563538E0,9.843563756E0
2.195160733E0,-6.340979934E-1,4.714159489E0,8.618349075E0,9.843846846E0
2.197563754E0,-6.484549642E-1,4.723731041E0,8.620741844E0,9.851462771E0
2.199967452E0,-6.628118753E-1,4.695017338E0,8.615956306E0,9.834490859E0
2.202369587E0,-6.819544435E-1,4.716552734E0,8.632705688E0,9.860757530E0
2.204772608E0,-6.771687865E-1,4.721338272E0,8.644669533E0,9.873191175E0
2.207175577E0,-6.604190469E-1,4.730909348E0,8.632705688E0,9.866167649E0
2.209578441E0,-6.604190469E-1,4.738088131E0,8.623134613E0,9.861241454E0
2.211982243E0,-6.412764788E-1,4.735694885E0,8.637491226E0,9.871387757E0
2.214384379E0,-6.436693072E-1,4.759623528E0,8.635098457E0,9.880953986E0
2.216787399E0,-6.317051649E-1,4.759623528E0,8.623134613E0,9.869727357E0
2.219191097E0,-6.293123364E-1,4.754837513E0,8.630312920E0,9.873541152E0
2.221593233E0,-6.388836503E-1,4.759623528E0,8.630312920E0,9.876461387E0
2.223996254E0,-6.508477330E-1,4.778766155E0,8.663812637E0,9.915737903E0
2.226399222E0,-6.412764788E-1,4.742873669E0,8.666205406E0,9.899959712E0
2.228802087E0,-6.508477330E-1,4.762016296E0,8.644669533E0,9.890940972E0
2.231205889E0,-6.628118753E-1,4.771587372E0,8.620741844E0,9.875452171E0
2.233608024E0,-6.460621357E-1,4.733302116E0,8.637491226E0,9.870552157E0
2.236011045E0,-5.958128572E-1,4.709373951E0,8.623134613E0,9.843355451E0
2.238414743E0,-6.197410822E-1,4.718945503E0,8.649456024E0,9.872467533E0
2.240816879E0,-6.125625968E-1,4.697410107E0,8.618349075E0,9.834471792E0
2.243219899E0,-5.910272002E-1,4.683053017E0,8.632705688E0,9.838897612E0
2.245622764E0,-5.527420044E-1,4.678267479E0,8.642276764E0,9.842797265E0
2.248025785E0,-5.694918036E-1,4.673481941E0,8.654241562E0,9.851987179E0
2.250429535E0,-5.431707501E-1,4.666303158E0,8.668598175E0,9.859716727E0
2.252831670E0,-5.359922647E-1,4.690231323E0,8.656634331E0,9.860166099E0
2.255234639E0,-4.977070987E-1,4.687838554E0,8.668598175E0,9.867529427E0
2.257638389E0,-4.618147612E-1,4.699802876E0,8.647063255E0,9.852569354E0
2.260040524E0,-4.977070987E-1,4.714159489E0,8.651848793E0,9.865368700E0
2.262443545E0,-5.024927258E-1,4.728516579E0,8.678169250E0,9.895554028E0
2.264846410E0,-5.096712112E-1,4.716552734E0,8.651848793E0,9.867123288E0
2.267249431E0,-5.120640397E-1,4.726123810E0,8.649456024E0,9.869728738E0
2.269653181E0,-4.953143001E-1,4.733302116E0,8.661419868E0,9.882797140E0
2.272055316E0,-5.144568682E-1,4.716552734E0,8.666205406E0,9.879962131E0
2.274458285E0,-5.192425251E-1,4.733302116E0,8.668598175E0,9.890316276E0
2.276862035E0,-5.575276613E-1,4.718945503E0,8.678169250E0,9.893932752E0
2.279264170E0,-5.599204898E-1,4.706981182E0,8.697312355E0,9.905171629E0
2.281667191E0,-5.575276613E-1,4.685445786E0,8.699705124E0,9.896924196E0
2.284070056E0,-5.886343718E-1,4.692624092E0,8.704490662E0,9.906329743E0
2.286473077E0,-5.862415433E-1,4.695017338E0,8.721240044E0,9.922040861E0
2.288876827E0,-6.053841114E-1,4.690231323E0,8.706883430E0,9.908308577E0
2.291278910E0,-6.221339107E-1,4.680660248E0,8.721240044E0,9.917442153E0
2.293681931E0,-6.005984545E-1,4.671088696E0,8.723632812E0,9.913705541E0
2.296085681E0,-6.005984545E-1,4.666303158E0,8.714061737E0,9.903028609E0
2.298487816E0,-6.077769399E-1,4.683053017E0,8.728418350E0,9.923994421E0
2.300890785E0,-5.814558864E-1,4.678267479E0,8.733204842E0,9.924371232E0
2.303293754E0,-5.886343718E-1,4.687838554E0,8.714061737E0,9.912476618E0
2.305696722E0,-5.934200287E-1,4.709373951E0,8.721240044E0,9.929268767E0
2.308100472E0,-5.694918036E-1,4.718945503E0,8.730812073E0,9.940817221E0
2.310502556E0,-5.790630579E-1,4.711766720E0,8.704490662E0,9.914848326E0
2.312905577E0,-5.551348329E-1,4.723731041E0,8.678169250E0,9.896081607E0
2.315309327E0,-5.359922647E-1,4.716552734E0,8.656634331E0,9.872713677E0
2.317711462E0,-5.383850932E-1,4.718945503E0,8.661419868E0,9.878182996E0
2.320114431E0,-4.953143001E-1,4.714159489E0,8.661419868E0,9.873643202E0
2.322517399E0,-5.168496966E-1,4.716552734E0,8.613563538E0,9.833945298E0
2.324920368E0,-5.144568682E-1,4.706981182E0,8.611170769E0,9.827135886E0
2.327324118E0,-5.096712112E-1,4.680660248E0,8.589634895E0,9.795415904E0
2.329726202E0,-5.048855543E-1,4.709373951E0,8.580063820E0,9.800541188E0
2.332129222E0,-4.761717021E-1,4.683053017E0,8.572885513E0,9.780188703E0
2.334532972E0,-4.905286431E-1,4.673481941E0,8.560921669E0,9.765829797E0
2.336935108E0,-5.096712112E-1,4.685445786E0,8.565707207E0,9.776732936E0
2.339338077E0,-4.977070987E-1,4.668695927E0,8.544171333E0,9.749220368E0
2.341741045E0,-4.905286431E-1,4.683053017E0,8.539385796E0,9.751549296E0
2.344144014E0,-4.953143001E-1,4.685445786E0,8.517850876E0,9.734090713E0
2.346547764E0,-5.216353536E-1,4.668695927E0,8.529814720E0,9.737893215E0
2.348949847E0,-5.240281820E-1,4.668695927E0,8.513064384E0,9.723352940E0
2.351352868E0,-5.096712112E-1,4.687838554E0,8.517850876E0,9.735983700E0
2.353756618E0,-5.168496966E-1,4.692624092E0,8.513064384E0,9.734480967E0
2.356158754E0,-5.024927258E-1,4.699802876E0,8.510671616E0,9.735100275E0
2.358561722E0,-5.192425251E-1,4.692624092E0,8.534600258E0,9.753447351E0
2.360964691E0,-5.288137794E-1,4.697410107E0,8.510671616E0,9.735339597E0
2.363367660E0,-5.527420044E-1,4.709373951E0,8.534600258E0,9.763356405E0
2.365771410E0,-5.575276613E-1,4.709373951E0,8.525029182E0,9.755263331E0
2.368173493E0,-5.503492355E-1,4.692624092E0,8.527421951E0,9.748873283E0
2.370576514E0,-5.312066078E-1,4.718945503E0,8.527421951E0,9.760509836E0
2.372980264E0,-5.503492355E-1,4.704588413E0,8.520243645E0,9.748363359E0
2.375382347E0,-5.335994363E-1,4.733302116E0,8.541778564E0,9.780125681E0
2.377785368E0,-5.503492355E-1,4.723731041E0,8.525029182E0,9.761795009E0
2.380188337E0,-5.407779217E-1,4.726123810E0,8.513064384E0,9.751971710E0
2.382591306E0,-5.407779217E-1,4.726123810E0,8.513064384E0,9.751971710E0
2.384995056E0,-5.168496966E-1,4.726123810E0,8.513064384E0,9.750674084E0
2.387397139E0,-5.096712112E-1,4.718945503E0,8.505886078E0,9.740549747E0
2.389800160E0,-5.192425251E-1,4.728516579E0,8.525029182E0,9.762407715E0
2.392203910E0,-5.048855543E-1,4.714159489E0,8.532207489E0,9.760982212E0
2.394606045E0,-5.000999570E-1,4.730909348E0,8.501100540E0,9.741679199E0
2.397009014E0,-5.072783828E-1,4.706981182E0,8.501100540E0,9.730452898E0
2.399411983E0,-4.857429862E-1,4.726123810E0,8.501100540E0,9.738629416E0
2.401814952E0,-4.737788737E-1,4.754837513E0,8.501100540E0,9.752007824E0
2.404218649E0,-4.737788737E-1,4.733302116E0,8.501100540E0,9.741525843E0
2.406620785E0,-4.522434771E-1,4.745266438E0,8.479565620E0,9.727543926E0
2.409023806E0,-4.666004181E-1,4.711766720E0,8.477172852E0,9.709836308E0
2.411427556E0,-4.594219327E-1,4.721338272E0,8.452944756E0,9.693006687E0
2.413829691E0,-4.785645306E-1,4.747659206E0,8.438588142E0,9.694279849E0
2.416232660E0,-4.570291340E-1,4.723731041E0,8.455337524E0,9.696145792E0
2.418635629E0,-4.546363056E-1,4.735694885E0,8.445766449E0,9.693527280E0
2.421038597E0,-4.833501875E-1,4.723731041E0,8.436195374E0,9.680736270E0
2.423442295E0,-5.072783828E-1,4.740480900E0,8.448159218E0,9.700561050E0
2.425844431E0,-5.288137794E-1,4.745266438E0,8.417053223E0,9.676982098E0
2.428247452E0,-5.288137794E-1,4.726123810E0,8.440980911E0,9.688449258E0
2.430651202E0,-5.575276613E-1,4.716552734E0,8.457730293E0,9.699995284E0
2.433053285E0,-5.599204898E-1,4.723731041E0,8.455337524E0,9.701540009E0
2.435456306E0,-5.862415433E-1,4.742873669E0,8.457730293E0,9.714511387E0
2.437859274E0,-5.670989752E-1,4.762016296E0,8.460124016E0,9.724818704E0
2.440262243E0,-5.910272002E-1,4.740480900E0,8.477172852E0,9.730566883E0
2.442665941E0,-5.910272002E-1,4.752444744E0,8.498707771E0,9.755156482E0
2.445068077E0,-5.910272002E-1,4.752444744E0,8.484351158E0,9.742651527E0
2.447471097E0,-5.886343718E-1,4.754837513E0,8.513064384E0,9.768686473E0
2.449874847E0,-6.005984545E-1,4.757230282E0,8.496315002E0,9.755989293E0
2.452276983E0,-6.077769399E-1,4.718945503E0,8.536993027E0,9.773335634E0
2.454679952E0,-6.029912829E-1,4.747659206E0,8.536993027E0,9.786936005E0
2.457082920E0,-6.053841114E-1,4.733302116E0,8.534600258E0,9.778038679E0
2.459485889E0,-6.197410822E-1,4.716552734E0,8.551349640E0,9.785475429E0
2.461889639E0,-6.197410822E-1,4.757230282E0,8.525029182E0,9.782200239E0
2.464291722E0,-6.197410822E-1,4.745266438E0,8.544171333E0,9.793084108E0
2.466694743E0,-6.053841114E-1,4.723731041E0,8.532207489E0,9.771319742E0
2.469098493E0,-6.077769399E-1,4.738088131E0,8.563314438E0,9.805571177E0
2.471500629E0,-6.053841114E-1,4.742873669E0,8.548956871E0,9.795203119E0
2.473903597E0,-5.934200287E-1,4.733302116E0,8.553742409E0,9.794018861E0
2.476306566E0,-5.766702294E-1,4.702195644E0,8.558527946E0,9.782207984E0
2.478709535E0,-5.862415433E-1,4.738088131E0,8.560921669E0,9.802170071E0
2.481113285E0,-5.838487148E-1,4.733302116E0,8.553742409E0,9.793443595E0
2.483515368E0,-5.670989752E-1,4.738088131E0,8.577671051E0,9.815677309E0
2.485918389E0,-5.312066078E-1,4.735694885E0,8.572885513E0,9.808330772E0
2.488322139E0,-5.479564071E-1,4.735694885E0,8.558527946E0,9.796706736E0
2.490724274E0,-5.527420044E-1,4.735694885E0,8.551349640E0,9.790705308E0
2.493127243E0,-5.216353536E-1,4.718945503E0,8.534600258E0,9.766266004E0
2.495530212E0,-5.335994363E-1,4.723731041E0,8.541778564E0,9.775497141E0
2.497933181E0,-5.192425251E-1,4.730909348E0,8.536993027E0,9.774014835E0
2.500336931E0,-5.383850932E-1,4.711766720E0,8.539385796E0,9.767891988E0
2.502739014E0,-5.264210105E-1,4.699802876E0,8.534600258E0,9.757287928E0
2.505142035E0,-5.551348329E-1,4.683053017E0,8.522636414E0,9.740353776E0
2.507545785E0,-5.431707501E-1,4.690231323E0,8.520243645E0,9.741039785E0
2.509947920E0,-5.670989752E-1,4.680660248E0,8.505886078E0,9.725239307E0
2.512350889E0,-5.766702294E-1,4.704588413E0,8.493922234E0,9.726891364E0
2.514753858E0,-5.838487148E-1,4.671088696E0,8.493922234E0,9.711161817E0
2.517156827E0,-5.551348329E-1,4.690231323E0,8.469993591E0,9.697795419E0
2.519560577E0,-5.742774606E-1,4.687838554E0,8.469993591E0,9.697753160E0
2.521962660E0,-5.599204898E-1,4.704588413E0,8.436195374E0,9.675539028E0
2.524365681E0,-5.623133183E-1,4.678267479E0,8.455337524E0,9.679623728E0
2.526769431E0,-5.814558864E-1,4.687838554E0,8.436195374E0,9.668676933E0
2.529171566E0,-5.623133183E-1,4.697410107E0,8.464909554E0,9.697244543E0
2.531574535E0,-5.694918036E-1,4.704588413E0,8.443373680E0,9.682356746E0
2.533977504E0,-5.551348329E-1,4.673481941E0,8.452944756E0,9.674806622E0
2.536380472E0,-5.503492355E-1,4.723731041E0,8.462516785E0,9.707250360E0
2.538784222E0,-5.359922647E-1,4.714159489E0,8.448159218E0,9.689271467E0
2.541186306E0,-5.048855543E-1,4.733302116E0,8.455337524E0,9.703184580E0
2.543589327E0,-5.120640397E-1,4.733302116E0,8.440980911E0,9.691053464E0
2.545993077E0,-5.048855543E-1,4.714159489E0,8.469993591E0,9.706647235E0
2.548395212E0,-4.761717021E-1,4.740480900E0,8.457730293E0,9.707321998E0
2.550798233E0,-4.737788737E-1,4.709373951E0,8.493922234E0,9.723650772E0
2.553201097E0,-4.546363056E-1,4.728516579E0,8.469993591E0,9.711145897E0
2.555604118E0,-4.594219327E-1,4.742873669E0,8.493922234E0,9.739231698E0
2.558007868E0,-4.570291340E-1,4.711766720E0,8.491529465E0,9.721918221E0
2.560410004E0,-4.666004181E-1,4.721338272E0,8.534600258E0,9.764637863E0
2.562812972E0,-4.522434771E-1,4.718945503E0,8.522636414E0,9.752348551E0
2.565216722E0,-4.426721931E-1,4.680660248E0,8.522636414E0,9.733440834E0
2.567618858E0,-4.375874400E-1,4.709373951E0,8.520243645E0,9.744959597E0
2.570021879E0,-4.594219327E-1,4.711766720E0,8.501100540E0,9.730391797E0
2.572424743E0,-4.666004181E-1,4.706981182E0,8.517850876E0,9.743057597E0
2.574827764E0,-4.761717021E-1,4.699802876E0,8.529814720E0,9.750519254E0
2.577231514E0,-4.929214716E-1,4.690231323E0,8.517850876E0,9.736273670E0
2.579633649E0,-5.144568682E-1,4.702195644E0,8.536993027E0,9.759895475E0
2.582036618E0,-5.288137794E-1,4.704588413E0,8.541778564E0,9.766001085E0
2.584440368E0,-5.383850932E-1,4.704588413E0,8.560921669E0,9.783270949E0
2.586842504E0,-5.383850932E-1,4.699802876E0,8.544171333E0,9.766312987E0
2.589245524E0,-5.431707501E-1,4.695017338E0,8.546564102E0,9.766369859E0
2.591648493E0,-5.359922647E-1,4.692624092E0,8.548956871E0,9.766917229E0
2.594051358E0,-5.790630579E-1,4.692624092E0,8.560921669E0,9.779847377E0
2.596455160E0,-5.575276613E-1,4.692624092E0,8.551349640E0,9.770216918E0
2.598857295E0,-5.838487148E-1,4.685445786E0,8.570492744E0,9.785071661E0
2.601260316E0,-5.670989752E-1,4.699802876E0,8.553742409E0,9.776311038E0
2.603664014E0,-5.527420044E-1,4.709373951E0,8.548956871E0,9.775908670E0
2.606066149E0,-5.551348329E-1,4.742873669E0,8.558527946E0,9.800582938E0
2.608469170E0,-5.623133183E-1,4.728516579E0,8.560921669E0,9.796144401E0
2.610872139E0,-5.455635786E-1,4.735694885E0,8.565707207E0,9.802845792E0
2.613275004E0,-5.264210105E-1,4.733302116E0,8.532207489E0,9.771378237E0
2.615678806E0,-5.192425251E-1,4.738088131E0,8.563314438E0,9.800481932E0
2.618080941E0,-5.240281820E-1,4.726123810E0,8.529814720E0,9.765684357E0
2.620483962E0,-5.527420044E-1,4.752444744E0,8.517850876E0,9.769597654E0
2.622887660E0,-5.288137794E-1,4.745266438E0,8.503493309E0,9.752261073E0
2.625289795E0,-5.216353536E-1,4.762016296E0,8.489136696E0,9.747530174E0
2.627692816E0,-5.072783828E-1,4.766801834E0,8.472386360E0,9.734529353E0
2.630095785E0,-5.168496966E-1,4.742873669E0,8.426624298E0,9.683490141E0
2.632498754E0,-5.096712112E-1,4.766801834E0,8.436195374E0,9.703172515E0
2.634902452E0,-5.120640397E-1,4.757230282E0,8.426624298E0,9.690275878E0
2.637304587E0,-5.192425251E-1,4.762016296E0,8.385946274E0,9.657665707E0
2.639707608E0,-5.144568682E-1,4.762016296E0,8.378767967E0,9.651177012E0
2.642111358E0,-5.192425251E-1,4.752444744E0,8.381160736E0,9.648792625E0
2.644513441E0,-5.359922647E-1,4.773980141E0,8.359624863E0,9.641654523E0
2.646916462E0,-5.192425251E-1,4.762016296E0,8.383553505E0,9.655588091E0
2.649319431E0,-5.359922647E-1,4.754837513E0,8.364410400E0,9.636344163E0
2.651722399E0,-5.575276613E-1,4.762016296E0,8.366803169E0,9.643185759E0
2.654126097E0,-5.312066078E-1,4.764409065E0,8.388339043E0,9.661573686E0
2.656528233E0,-5.694918036E-1,4.781158924E0,8.378767967E0,9.663723621E0
2.658931254E0,-5.407779217E-1,4.790730000E0,8.409873962E0,9.693787431E0
2.661335004E0,-5.479564071E-1,4.795515537E0,8.429017067E0,9.713163965E0
2.663737087E0,-5.647061467E-1,4.776372910E0,8.421838760E0,9.698453449E0
2.666140108E0,-5.766702294E-1,4.769194603E0,8.457730293E0,9.726816922E0
2.668543077E0,-5.359922647E-1,4.771587372E0,8.479565620E0,9.744658376E0
2.670946045E0,-5.838487148E-1,4.764409065E0,8.477172852E0,9.741813621E0
2.673349795E0,-5.862415433E-1,4.762016296E0,8.467600822E0,9.732458171E0
2.675751879E0,-5.742774606E-1,4.769194603E0,8.501100540E0,9.764410999E0
2.678154899E0,-5.766702294E-1,4.757230282E0,8.539385796E0,9.792083449E0
2.680558649E0,-5.742774606E-1,4.754837513E0,8.539385796E0,9.790780569E0
2.682960785E0,-5.766702294E-1,4.745266438E0,8.582456589E0,9.823882288E0
2.685363754E0,-5.910272002E-1,4.733302116E0,8.599205971E0,9.833605921E0
2.687766722E0,-5.814558864E-1,4.726123810E0,8.625527382E0,9.852616903E0
2.690169691E0,-5.982056856E-1,4.706981182E0,8.630312920E0,9.848645744E0
2.692573441E0,-6.125625968E-1,4.723731041E0,8.613563538E0,9.842882947E0
2.694975524E0,-5.910272002E-1,4.721338272E0,8.642276764E0,9.865561104E0
2.697378545E0,-6.029912829E-1,4.687838554E0,8.670990944E0,9.875500633E0
2.699782295E0,-5.910272002E-1,4.716552734E0,8.651848793E0,9.871659961E0
2.702184431E0,-5.910272002E-1,4.716552734E0,8.673383713E0,9.890539312E0
2.704587452E0,-6.005984545E-1,4.735694885E0,8.668598175E0,9.896065828E0
2.706990316E0,-5.742774606E-1,4.704588413E0,8.668598175E0,9.879652882E0
2.709393337E0,-5.742774606E-1,4.699802876E0,8.666205406E0,9.875275075E0
2.711797087E0,-5.910272002E-1,4.706981182E0,8.647063255E0,9.862894501E0
2.714199222E0,-5.742774606E-1,4.721338272E0,8.651848793E0,9.872958889E0
2.716602191E0,-5.670989752E-1,4.718945503E0,8.632705688E0,9.854626092E0
2.719005941E0,-5.575276613E-1,4.711766720E0,8.630312920E0,9.848547294E0
2.721408077E0,-5.288137794E-1,4.716552734E0,8.606385231E0,9.828294890E0
2.723811097E0,-5.407779217E-1,4.752444744E0,8.575278282E0,9.819041166E0
2.726214066E0,-5.455635786E-1,4.718945503E0,8.563314438E0,9.792672794E0
2.728616931E0,-5.407779217E-1,4.718945503E0,8.563314438E0,9.792407344E0
2.731020733E0,-5.312066078E-1,4.697410107E0,8.551349640E0,9.771050242E0
2.733422868E0,-5.383850932E-1,4.728516579E0,8.563314438E0,9.796891431E0
2.735825889E0,-5.479564071E-1,4.714159489E0,8.525029182E0,9.757032257E0
2.738229587E0,-5.431707501E-1,4.723731041E0,8.508278847E0,9.746767584E0
2.740631722E0,-5.312066078E-1,4.690231323E0,8.496315002E0,9.719455692E0
2.743034743E0,-5.551348329E-1,4.690231323E0,8.508278847E0,9.731251383E0
2.745437712E0,-5.335994363E-1,4.718945503E0,8.472386360E0,9.712595207E0
2.747840577E0,-5.407779217E-1,4.728516579E0,8.472386360E0,9.717645828E0
2.750244379E0,-5.359922647E-1,4.704588413E0,8.472386360E0,9.705759655E0
2.752646514E0,-5.288137794E-1,4.723731041E0,8.467600822E0,9.710486221E0
2.755049535E0,-5.479564071E-1,4.718945503E0,8.440980911E0,9.686013712E0
2.757453285E0,-5.264210105E-1,4.714159489E0,8.433802605E0,9.676230937E0
2.759855368E0,-5.192425251E-1,4.711766720E0,8.450551987E0,9.689282084E0
2.762258389E0,-5.288137794E-1,4.704588413E0,8.429017067E0,9.667529409E0
2.764661358E0,-5.264210105E-1,4.726123810E0,8.455337524E0,9.700829758E0
2.767064327E0,-5.479564071E-1,4.721338272E0,8.424231529E0,9.672588493E0
2.769468024E0,-5.479564071E-1,4.716552734E0,8.464909554E0,9.705710673E0
2.771870160E0,-5.527420044E-1,4.709373951E0,8.489136696E0,9.723639677E0
2.774273181E0,-5.623133183E-1,4.714159489E0,8.484351158E0,9.722330509E0
2.776676931E0,-5.599204898E-1,4.697410107E0,8.510671616E0,9.737078823E0
2.779079066E0,-5.407779217E-1,4.680660248E0,8.508278847E0,9.725833129E0
2.781482035E0,-5.431707501E-1,4.702195644E0,8.517850876E0,9.744714562E0
2.783885004E0,-5.551348329E-1,4.671088696E0,8.527421951E0,9.738797124E0
2.786287972E0,-5.288137794E-1,4.678267479E0,8.546564102E0,9.757540088E0
2.788691722E0,-5.312066078E-1,4.702195644E0,8.553742409E0,9.775445439E0
2.791093806E0,-5.192425251E-1,4.695017338E0,8.575278282E0,9.790209304E0
2.793496827E0,-5.120640397E-1,4.675874710E0,8.613563538E0,9.814249370E0
2.795900577E0,-4.977070987E-1,4.675874710E0,8.608778000E0,9.809310644E0
2.798302712E0,-4.761717021E-1,4.702195644E0,8.637491226E0,9.845996042E0
2.800705681E0,-4.713860750E-1,4.678267479E0,8.651848793E0,9.846973087E0
2.803108649E0,-4.809573591E-1,4.680660248E0,8.647063255E0,9.844369115E0
2.805511618E0,-4.785645306E-1,4.659124851E0,8.654241562E0,9.840343764E0
2.807915368E0,-4.689932466E-1,4.656732082E0,8.661419868E0,9.845064880E0
2.810317504E0,-5.072783828E-1,4.649553299E0,8.680562019E0,9.860417547E0
2.812720472E0,-4.905286431E-1,4.649553299E0,8.670990944E0,9.851144511E0
2.815124222E0,-4.929214716E-1,4.671088696E0,8.654241562E0,9.846722205E0
2.817526358E0,-4.905286431E-1,4.666303158E0,8.670990944E0,9.859061186E0
2.819929379E0,-5.024927258E-1,4.663910389E0,8.690134048E0,9.875372845E0
2.822332347E0,-5.168496966E-1,4.659124851E0,8.654241562E0,9.842279970E0
2.824735212E0,-5.288137794E-1,4.654339314E0,8.654241562E0,9.840651171E0
2.827139014E0,-5.120640397E-1,4.661517620E0,8.661419868E0,9.849474618E0
2.829541149E0,-5.288137794E-1,4.644767761E0,8.654241562E0,9.836127723E0
2.831944170E0,-5.455635786E-1,4.656732082E0,8.685347557E0,9.870058535E0
2.834347868E0,-5.216353536E-1,4.654339314E0,8.668598175E0,9.852896640E0
2.836750004E0,-5.048855543E-1,4.659124851E0,8.678169250E0,9.862706289E0
2.839153024E0,-5.048855543E-1,4.680660248E0,8.670990944E0,9.866588758E0
2.841555993E0,-4.905286431E-1,4.683053017E0,8.656634331E0,9.854385919E0
2.843958962E0,-5.120640397E-1,4.663910389E0,8.668598175E0,9.856919601E0
2.846362660E0,-5.264210105E-1,4.673481941E0,8.659027100E0,9.853796367E0
2.848764795E0,-4.833501875E-1,4.680660248E0,8.678169250E0,9.871819959E0
2.851167816E0,-4.977070987E-1,4.680660248E0,8.675776482E0,9.870430096E0
2.853571566E0,-5.096712112E-1,4.690231323E0,8.663812637E0,9.865073949E0
2.855973702E0,-5.240281820E-1,4.683053017E0,8.642276764E0,9.843502362E0
2.858376670E0,-5.335994363E-1,4.683053017E0,8.642276764E0,9.844016537E0
2.860779639E0,-5.264210105E-1,4.690231323E0,8.639883995E0,9.844947150E0
2.863182608E0,-5.455635786E-1,4.671088696E0,8.623134613E0,9.822176937E0
2.865586306E0,-5.407779217E-1,4.683053017E0,8.623134613E0,9.827607892E0
2.867988441E0,-5.647061467E-1,4.675874710E0,8.632705688E0,9.833936386E0
2.870391462E0,-5.623133183E-1,4.675874710E0,8.608778000E0,9.812800784E0
2.872795212E0,-5.575276613E-1,4.683053017E0,8.630312920E0,9.834842334E0
2.875197347E0,-5.575276613E-1,4.706981182E0,8.635098457E0,9.850453508E0
2.877600316E0,-5.599204898E-1,4.704588413E0,8.625527382E0,9.841056128E0
2.880003285E0,-5.383850932E-1,4.699802876E0,8.611170769E0,9.824981811E0
2.882406254E0,-5.431707501E-1,4.706981182E0,8.618349075E0,9.834970620E0
2.884810004E0,-5.455635786E-1,4.714159489E0,8.639883995E0,9.857410144E0
2.887212139E0,-5.288137794E-1,4.721338272E0,8.642276764E0,9.862029546E0
2.889615108E0,-5.216353536E-1,4.742873669E0,8.630312920E0,9.861503697E0
2.892018858E0,-5.096712112E-1,4.733302116E0,8.615956306E0,9.843709501E0
2.894420993E0,-5.312066078E-1,4.738088131E0,8.615956306E0,9.847149977E0
2.896824014E0,-5.335994363E-1,4.721338272E0,8.611170769E0,9.835040694E0
2.899226983E0,-5.144568682E-1,4.718945503E0,8.618349075E0,9.839159177E0
2.901629847E0,-5.168496966E-1,4.697410107E0,8.630312920E0,9.839466266E0
2.904033649E0,-5.168496966E-1,4.695017338E0,8.615956306E0,9.825732771E0
2.906435785E0,-5.312066078E-1,4.668695927E0,8.603992462E0,9.803447782E0
2.908838806E0,-5.048855543E-1,4.663910389E0,8.608778000E0,9.803980222E0
2.911242556E0,-5.240281820E-1,4.663910389E0,8.618349075E0,9.813389141E0
2.913644639E0,-5.048855543E-1,4.659124851E0,8.625527382E0,9.816418717E0
2.916047660E0,-4.737788737E-1,4.644767761E0,8.632705688E0,9.814374228E0
2.918450629E0,-4.785645306E-1,4.635196686E0,8.623134613E0,9.801659190E0
2.920853493E0,-4.905286431E-1,4.637589455E0,8.644669533E0,9.822329949E0
2.923257295E0,-4.402793646E-1,4.642374992E0,8.635098457E0,9.813787080E0
2.925659431E0,-4.570291340E-1,4.632803917E0,8.639883995E0,9.814241856E0
2.928062452E0,-4.450650215E-1,4.635196686E0,8.627920151E0,9.804291781E0
2.930466202E0,-4.256233275E-1,4.623232365E0,8.623134613E0,9.793563359E0
2.932868337E0,-4.474578202E-1,4.628017902E0,8.625527382E0,9.798902531E0
2.935271306E0,-4.304089844E-1,4.630411148E0,8.589634895E0,9.767690972E0
2.937674274E0,-4.232304990E-1,4.642374992E0,8.584849358E0,9.768848863E0
2.940077243E0,-4.280161560E-1,4.628017902E0,8.580063820E0,9.758034776E0
2.942480993E0,-4.328017831E-1,4.611268520E0,8.565707207E0,9.737682204E0
2.944883129E0,-4.546363056E-1,4.628017902E0,8.553742409E0,9.736105642E0
2.947286097E0,-4.474578202E-1,4.630411148E0,8.556135178E0,9.739013044E0
2.949689847E0,-4.666004181E-1,4.651946545E0,8.505886078E0,9.706102234E0
2.952091983E0,-4.570291340E-1,4.647160530E0,8.501100540E0,9.699159088E0
2.954495004E0,-4.546363056E-1,4.656732082E0,8.493922234E0,9.697348234E0
2.956897868E0,-4.666004181E-1,4.680660248E0,8.462516785E0,9.681967085E0
2.959300889E0,-4.953143001E-1,4.695017338E0,8.462516785E0,9.690341294E0
2.961704639E0,-4.977070987E-1,4.678267479E0,8.438588142E0,9.661452727E0
2.964106774E0,-5.000999570E-1,4.692624092E0,8.419445992E0,9.651833590E0
2.966509795E0,-5.072783828E-1,4.663910389E0,8.417053223E0,9.636190971E0
2.968913493E0,-4.977070987E-1,4.702195644E0,8.383553505E0,9.625088343E0
2.971315629E0,-5.144568682E-1,4.721338272E0,8.376375198E0,9.629089386E0
2.973718649E0,-5.024927258E-1,4.742873669E0,8.381160736E0,9.643194743E0
2.976121618E0,-4.809573591E-1,4.704588413E0,8.354839325E0,9.600406880E0
2.978524587E0,-4.713860750E-1,4.723731041E0,8.347661018E0,9.603087225E0
2.980928285E0,-4.570291340E-1,4.730909348E0,8.335697174E0,9.595531578E0
2.983330420E0,-4.618147612E-1,4.706981182E0,8.309375763E0,9.561101939E0
2.985733441E0,-4.570291340E-1,4.711766720E0,8.316554070E0,9.569466696E0
2.988137191E0,-4.426721931E-1,4.716552734E0,8.295019150E0,9.552443199E0
2.990539274E0,-4.351946115E-1,4.735694885E0,8.287839890E0,9.555338321E0
2.992942295E0,-4.351946115E-1,4.728516579E0,8.292626381E0,9.555936149E0
2.995345264E0,-4.208376706E-1,4.711766720E0,8.283054352E0,9.538702184E0
2.997748233E0,-4.232304990E-1,4.728516579E0,8.297411919E0,9.559552167E0
3.000151983E0,-4.328017831E-1,4.730909348E0,8.292626381E0,9.557011716E0
3.002554066E0,-4.184448719E-1,4.714159489E0,8.295019150E0,9.550169553E0
3.004957087E0,-4.184448719E-1,4.702195644E0,8.280661583E0,9.531793968E0
3.007360837E0,-4.304089844E-1,4.692624092E0,8.263912201E0,9.513055115E0
3.009762972E0,-4.136592150E-1,4.683053017E0,8.259126663E0,9.503434787E0
3.012165993E0,-4.040879309E-1,4.685445786E0,8.263912201E0,9.508361275E0
3.014568858E0,-4.088735580E-1,4.675874710E0,8.256733894E0,9.497612147E0
3.016971879E0,-3.897309899E-1,4.671088696E0,8.263912201E0,9.500694959E0
3.019375629E0,-4.184448719E-1,4.678267479E0,8.259126663E0,9.501287068E0
3.021777764E0,-3.801597059E-1,4.668695927E0,8.261519432E0,9.497049351E0
3.024180785E0,-4.184448719E-1,4.673481941E0,8.237590790E0,9.480212634E0
3.026584483E0,-4.184448719E-1,4.656732082E0,8.216055870E0,9.453244092E0
3.028986618E0,-4.112663865E-1,4.644767761E0,8.235198021E0,9.463693467E0
3.031389639E0,-4.136592150E-1,4.649553299E0,8.268697739E0,9.495305267E0
3.033792608E0,-4.426721931E-1,4.642374992E0,8.275876045E0,9.499354113E0
3.036195577E0,-4.881358147E-1,4.649553299E0,8.297411919E0,9.523847279E0
3.038599274E0,-5.240281820E-1,4.656732082E0,8.304590225E0,9.535511419E0
3.041001410E0,-5.192425251E-1,4.673481941E0,8.306982994E0,9.545523177E0
3.043404431E0,-5.455635786E-1,4.659124851E0,8.266304970E0,9.504571629E0
3.045808181E0,-5.192425251E-1,4.647160530E0,8.218448639E0,9.455612715E0
3.048210264E0,-5.407779217E-1,4.637589455E0,8.235198021E0,9.466687021E0
3.050613285E0,-5.551348329E-1,4.644767761E0,8.232805252E0,9.468955832E0
3.053016254E0,-5.599204898E-1,4.659124851E0,8.220841408E0,9.465896090E0
3.055419222E0,-5.551348329E-1,4.675874710E0,8.211270332E0,9.465565987E0
3.057822972E0,-5.527420044E-1,4.671088696E0,8.218448639E0,9.469292020E0
3.060225056E0,-5.814558864E-1,4.666303158E0,8.211270332E0,9.462422342E0
3.062628077E0,-5.623133183E-1,4.659124851E0,8.180163383E0,9.430732401E0
3.065031827E0,-5.742774606E-1,4.661517620E0,8.208877563E0,9.457547884E0
3.067433962E0,-5.623133183E-1,4.671088696E0,8.199305534E0,9.453246909E0
3.069836983E0,-5.934200287E-1,4.668695927E0,8.184948921E0,9.441517771E0
3.072239847E0,-5.551348329E-1,4.695017338E0,8.192127228E0,9.458451829E0
3.074642868E0,-5.431707501E-1,4.699802876E0,8.177770615E0,9.447704153E0
3.077046618E0,-5.072783828E-1,4.704588413E0,8.182556152E0,9.452233000E0
3.079448754E0,-5.144568682E-1,4.721338272E0,8.168199539E0,9.448554633E0
3.081851774E0,-5.072783828E-1,4.721338272E0,8.156234741E0,9.437824516E0
3.084255472E0,-5.072783828E-1,4.709373951E0,8.153841972E0,9.429775887E0
3.086657608E0,-5.192425251E-1,4.690231323E0,8.180163383E0,9.443672784E0
3.089060629E0,-5.264210105E-1,4.668695927E0,8.165806770E0,9.420946924E0
3.091463597E0,-5.192425251E-1,4.673481941E0,8.165806770E0,9.422921334E0
3.093866566E0,-5.168496966E-1,4.673481941E0,8.163414001E0,9.420716280E0
3.096270264E0,-5.288137794E-1,4.678267479E0,8.149056435E0,9.411320385E0
3.098672399E0,-5.072783828E-1,4.683053017E0,8.151449203E0,9.414586610E0
3.101075420E0,-5.000999570E-1,4.644767761E0,8.120343208E0,9.368241102E0
3.103479170E0,-5.096712112E-1,4.596911430E0,8.125128746E0,9.349282143E0
3.105881306E0,-5.120640397E-1,4.561018944E0,8.144270897E0,9.348489281E0
3.108284274E0,-5.192425251E-1,4.546662331E0,8.153841972E0,9.350234760E0
3.110687243E0,-5.168496966E-1,4.534698009E0,8.165806770E0,9.354732484E0
3.113090212E0,-5.407779217E-1,4.529912472E0,8.170592308E0,9.357944562E0
3.115493962E0,-5.144568682E-1,4.553840637E0,8.180163383E0,9.376417407E0
3.117896097E0,-5.168496966E-1,4.556233406E0,8.201698303E0,9.396502089E0
3.120299066E0,-5.120640397E-1,4.541876316E0,8.208877563E0,9.395558573E0
3.122702816E0,-4.809573591E-1,4.561018944E0,8.232805252E0,9.424080650E0
3.125104952E0,-4.977070987E-1,4.582554340E0,8.239983559E0,9.441654817E0
3.127507972E0,-4.785645306E-1,4.606482506E0,8.242376328E0,9.454389066E0
3.129910941E0,-4.881358147E-1,4.618446827E0,8.247162819E0,9.464883635E0
3.132313806E0,-4.953143001E-1,4.639982224E0,8.263912201E0,9.490364385E0
3.134717608E0,-4.737788737E-1,4.618446827E0,8.266304970E0,9.480839381E0
3.137119743E0,-4.737788737E-1,4.644767761E0,8.261519432E0,9.489522501E0
3.139522764E0,-4.761717021E-1,4.659124851E0,8.285447121E0,9.517500610E0
3.141926514E0,-5.024927258E-1,4.632803917E0,8.268697739E0,9.491403129E0
3.144328597E0,-5.000999570E-1,4.620839596E0,8.275876045E0,9.491700736E0
3.146731618E0,-5.096712112E-1,4.625625134E0,8.275876045E0,9.494540375E0
3.149134587E0,-5.383850932E-1,4.611268520E0,8.290233612E0,9.501664550E0
3.151537556E0,-5.575276613E-1,4.616054058E0,8.290233612E0,9.505091557E0
3.153941306E0,-5.982056856E-1,4.572983265E0,8.292626381E0,9.488818592E0
3.156343389E0,-6.101697683E-1,4.532305241E0,8.280661583E0,9.459569451E0
3.158746410E0,-6.149554253E-1,4.532305241E0,8.239983559E0,9.424292547E0
3.161150160E0,-6.460621357E-1,4.544269085E0,8.249555588E0,9.440494966E0
3.163552295E0,-6.604190469E-1,4.599304199E0,8.218448639E0,9.441008975E0
3.165955316E0,-6.628118753E-1,4.606482506E0,8.223234177E0,9.448840192E0
3.168358285E0,-6.508477330E-1,4.618446827E0,8.201698303E0,9.435121034E0
3.170761149E0,-6.508477330E-1,4.613661289E0,8.223234177E0,9.451510651E0
3.173164952E0,-6.173482537E-1,4.589733124E0,8.235198021E0,9.448029184E0
3.175567087E0,-5.862415433E-1,4.584947109E0,8.204091072E0,9.416609234E0
3.177970108E0,-6.173482537E-1,4.623232365E0,8.201698303E0,9.435213374E0
3.180373858E0,-6.939185858E-1,4.649553299E0,8.249555588E0,9.495000594E0
3.182775941E0,-6.556333899E-1,4.668695927E0,8.239983559E0,9.493361146E0
3.185178962E0,-6.508477330E-1,4.651946545E0,8.263912201E0,9.505601206E0
3.187581931E0,-6.269195080E-1,4.678267479E0,8.256733894E0,9.510671337E0
3.189984899E0,-6.077769399E-1,4.690231323E0,8.259126663E0,9.517396488E0
3.192388597E0,-5.766702294E-1,4.690231323E0,8.263912201E0,9.519614660E0
3.194790733E0,-5.838487148E-1,4.668695927E0,8.266304970E0,9.511540298E0
3.197193754E0,-5.886343718E-1,4.668695927E0,8.268697739E0,9.513914776E0
3.199597504E0,-6.005984545E-1,4.632803917E0,8.268697739E0,9.497102344E0
3.201999639E0,-6.077769399E-1,4.630411148E0,8.256733894E0,9.485976745E0
3.204402660E0,-6.269195080E-1,4.596911430E0,8.254341125E0,9.468831511E0
3.206805524E0,-6.053841114E-1,4.570590496E0,8.271090508E0,9.469304388E0
3.209208545E0,-6.101697683E-1,4.563411713E0,8.271090508E0,9.466148731E0
3.211612295E0,-6.125625968E-1,4.546662331E0,8.268697739E0,9.456147925E0
3.214014431E0,-6.101697683E-1,4.534698009E0,8.266304970E0,9.448152784E0
3.216417452E0,-6.149554253E-1,4.505984306E0,8.275876045E0,9.443102724E0
3.218821149E0,-5.838487148E-1,4.491328239E0,8.251948357E0,9.413158894E0
3.221223285E0,-5.790630579E-1,4.460221291E0,8.237590790E0,9.385456303E0
3.223626306E0,-5.479564071E-1,4.467400074E0,8.213663101E0,9.366012021E0
3.226029274E0,-5.407779217E-1,4.453042984E0,8.213663101E0,9.358754945E0
3.228432243E0,-5.288137794E-1,4.429114819E0,8.230412483E0,9.361431073E0
3.230835941E0,-5.096712112E-1,4.433900356E0,8.204091072E0,9.339504667E0
3.233238077E0,-4.689932466E-1,4.417150497E0,8.206484795E0,9.331536094E0
3.235641097E0,-4.570291340E-1,4.412364960E0,8.204091072E0,9.326572280E0
3.238044847E0,-4.375874400E-1,4.388436794E0,8.204091072E0,9.314342198E0
3.240446983E0,-4.160520434E-1,4.419543266E0,8.211270332E0,9.334367812E0
3.242849952E0,-3.849453330E-1,4.412364960E0,8.199305534E0,9.319107183E0
3.245252920E0,-3.753740489E-1,4.412364960E0,8.180163383E0,9.301878477E0
3.247655889E0,-3.466601670E-1,4.400400639E0,8.149056435E0,9.267730026E0
3.250059639E0,-3.466601670E-1,4.407579422E0,8.137092590E0,9.260626623E0
3.252461774E0,-3.203391433E-1,4.405186653E0,8.129914284E0,9.252231778E0
3.254864743E0,-3.203391433E-1,4.409972191E0,8.134699821E0,9.258715520E0
3.257268493E0,-3.370888829E-1,4.414757729E0,8.153841972E0,9.278407925E0
3.259670629E0,-3.346960545E-1,4.429114819E0,8.129914284E0,9.264155967E0
3.262073649E0,-3.538386524E-1,4.414757729E0,8.153841972E0,9.279031550E0
3.264476618E0,-3.634099364E-1,4.390829563E0,8.187341690E0,9.297527359E0
3.266879587E0,-3.849453330E-1,4.386044025E0,8.177770615E0,9.287706785E0
3.269283285E0,-4.112663865E-1,4.388436794E0,8.168199539E0,9.281540888E0
3.271685420E0,-4.184448719E-1,4.359723091E0,8.172985077E0,9.272538305E0
3.274088441E0,-4.328017831E-1,4.376472473E0,8.161020279E0,9.270549104E0
3.276492191E0,-4.304089844E-1,4.366901398E0,8.137092590E0,9.244855625E0
3.278894327E0,-4.594219327E-1,4.333401680E0,8.137092590E0,9.230477477E0
3.281297295E0,-4.594219327E-1,4.359723091E0,8.127521515E0,9.234438798E0
3.283700264E0,-4.785645306E-1,4.333401680E0,8.098807335E0,9.197721151E0
3.286103233E0,-4.809573591E-1,4.319045067E0,8.074878693E0,9.170012877E0
3.288506983E0,-5.120640397E-1,4.323830605E0,8.048558235E0,9.150792881E0
3.290909118E0,-5.096712112E-1,4.285545349E0,8.010272980E0,9.098908555E0
3.293312087E0,-5.455635786E-1,4.283152580E0,8.000701904E0,9.091439193E0
3.295715837E0,-5.670989752E-1,4.271188259E0,7.979166031E0,9.068171863E0
3.298117972E0,-5.575276613E-1,4.261617184E0,7.931309700E0,9.020969553E0
3.300520993E0,-5.623133183E-1,4.244867325E0,7.916952610E0,9.000735165E0
3.302923962E0,-5.359922647E-1,4.230510235E0,7.880761147E0,8.960519003E0
3.305326931E0,-5.479564071E-1,4.218546391E0,7.847261906E0,8.926136302E0
3.307730629E0,-5.766702294E-1,4.213760853E0,7.825726509E0,8.906757237E0
3.310132764E0,-5.479564071E-1,4.187439442E0,7.806583881E0,8.875677844E0
3.312535785E0,-5.312066078E-1,4.177868366E0,7.765905857E0,8.834368021E0
3.314939535E0,-5.359922647E-1,4.175475597E0,7.758727551E0,8.827215720E0
3.317341670E0,-5.264210105E-1,4.177868366E0,7.741977692E0,8.813054053E0
3.319744639E0,-5.240281820E-1,4.149154663E0,7.730013371E0,8.788810879E0
3.322147608E0,-5.000999570E-1,4.146761417E0,7.737192154E0,8.792603292E0
3.324550577E0,-4.833501875E-1,4.118047714E0,7.720442295E0,8.763399661E0
3.326954327E0,-4.785645306E-1,4.144368649E0,7.737192154E0,8.790276329E0
3.329356462E0,-4.737788737E-1,4.110869408E0,7.744370461E0,8.780602914E0
3.331759431E0,-4.594219327E-1,4.115654945E0,7.749155998E0,8.786302000E0
3.334163181E0,-4.375874400E-1,4.091726780E0,7.761120319E0,8.784571670E0
3.336565316E0,-4.328017831E-1,4.101297855E0,7.775477409E0,8.801477741E0
3.338968337E0,-4.375874400E-1,4.091726780E0,7.801798344E0,8.820531061E0
3.341371306E0,-3.921238184E-1,4.082155228E0,7.849654675E0,8.856344105E0
3.343774170E0,-4.136592150E-1,4.077369690E0,7.883154392E0,8.884828682E0
3.346177972E0,-3.753740489E-1,4.089334011E0,7.914559841E0,8.916491227E0
3.348580108E0,-3.490529954E-1,4.096512318E0,7.943274021E0,8.944207809E0
3.350983129E0,-3.346960545E-1,4.101297855E0,7.988737583E0,8.986244695E0
3.353386879E0,-3.299104273E-1,4.089334011E0,8.029415131E0,9.016817669E0
3.355789014E0,-3.155534863E-1,4.084548473E0,8.036594391E0,9.020529898E0
3.358191983E0,-2.964109182E-1,4.096512318E0,8.067700386E0,9.053013980E0
3.360594952E0,-2.748754919E-1,4.084548473E0,8.115556717E0,9.089628903E0
3.362997920E0,-2.724826932E-1,4.074976921E0,8.151449203E0,9.117335567E0
3.365401670E0,-2.389831543E-1,4.067798615E0,8.189734459E0,9.147450411E0
3.367803806E0,-2.365903407E-1,4.036691666E0,8.216055870E0,9.157206378E0
3.370206827E0,-2.222333997E-1,4.019941807E0,8.225626945E0,9.158070673E0
3.372610524E0,-2.078764737E-1,3.988835335E0,8.220841408E0,9.139816924E0
3.375012660E0,-1.911267042E-1,3.979264021E0,8.239983559E0,9.152507886E0
3.377415681E0,-1.911267042E-1,3.948157310E0,8.230412483E0,9.130397867E0
3.379818649E0,-1.839482337E-1,3.931108475E0,8.213663101E0,9.107783064E0
3.382221618E0,-1.600200087E-1,3.902394533E0,8.213663101E0,9.094973944E0
3.384625316E0,-1.719841212E-1,3.888037682E0,8.206484795E0,9.082555160E0
3.387027452E0,-1.815554202E-1,3.888037682E0,8.280661583E0,9.149817246E0
3.389430472E0,-1.935195327E-1,3.868895054E0,8.220841408E0,9.087795783E0
3.391834222E0,-1.432702541E-1,3.844966888E0,8.101200104E0,8.968485929E0
3.394236358E0,-7.148557901E-2,3.804288864E0,8.036594391E0,8.891826210E0
3.396639379E0,-4.516452923E-2,3.789932013E0,7.971987724E0,8.827129362E0
3.399042243E0,-3.080759197E-2,3.734897137E0,7.926524162E0,8.762430657E0
3.401445264E0,-6.909275055E-2,3.710968733E0,7.883154392E0,8.713219033E0
3.403849014E0,-9.541380405E-2,3.660719633E0,7.844869137E0,8.657479067E0
3.406251149E0,-9.302098304E-2,3.629612923E0,7.761120319E0,8.568414759E0
3.408654170E0,-1.336989701E-1,3.581756353E0,7.710870743E0,8.503198316E0
3.411057868E0,-1.624128371E-1,3.567399502E0,7.674978733E0,8.465105769E0
3.413460004E0,-1.959123611E-1,3.521935940E0,7.624729156E0,8.401125468E0
3.415863024E0,-2.174477577E-1,3.474079370E0,7.581658363E0,8.342544848E0
3.418265993E0,-2.605185509E-1,3.486043453E0,7.576872826E0,8.344421531E0
3.420668962E0,-3.083750308E-1,3.483650684E0,7.557730198E0,8.327676927E0
3.423072660E0,-3.586242795E-1,3.502793312E0,7.545766354E0,8.326869894E0
3.425474795E0,-3.753740489E-1,3.493221998E0,7.552944660E0,8.330094756E0
3.427877816E0,-4.040879309E-1,3.536292791E0,7.564908981E0,8.360412768E0
3.430281566E0,-4.208376706E-1,3.533900023E0,7.564908981E0,8.360227366E0
3.432683702E0,-4.304089844E-1,3.569792271E0,7.603193760E0,8.410542438E0
3.435086722E0,-4.208376706E-1,3.586542130E0,7.600800991E0,8.415020172E0
3.437489587E0,-4.328017831E-1,3.579363585E0,7.631907940E0,8.440685983E0
3.439892608E0,-4.328017831E-1,3.588934898E0,7.648657799E0,8.459889905E0
3.442296358E0,-4.328017831E-1,3.593720436E0,7.663014412E0,8.474900226E0
3.444698493E0,-4.256233275E-1,3.560220957E0,7.660621643E0,8.458218041E0
3.447101514E0,-4.474578202E-1,3.567399502E0,7.674978733E0,8.475367618E0
3.449505212E0,-4.375874400E-1,3.533900023E0,7.682157040E0,8.467317693E0
3.451907347E0,-4.498506486E-1,3.488436222E0,7.715656757E0,8.479558484E0
3.454310368E0,-4.642075896E-1,3.464508057E0,7.727620602E0,8.481416446E0
3.456713337E0,-4.498506486E-1,3.431008577E0,7.768298626E0,8.504154808E0
3.459116306E0,-4.618147612E-1,3.402294636E0,7.787441254E0,8.510765121E0
3.461520056E0,-4.232304990E-1,3.366103172E0,7.811369419E0,8.516294195E0
3.463922139E0,-3.945166469E-1,3.313461065E0,7.856832981E0,8.536070062E0
3.466325160E0,-3.658027649E-1,3.272783279E0,7.883154392E0,8.543362642E0
3.468728910E0,-3.610171080E-1,3.244069338E0,7.873582840E0,8.523357669E0
3.471131045E0,-3.514458239E-1,3.177070379E0,7.871190071E0,8.495464878E0
3.473534066E0,-3.346960545E-1,3.165106058E0,7.861618996E0,8.481448640E0
3.475937035E0,-3.346960545E-1,3.133999348E0,7.832904816E0,8.443244117E0
3.478339899E0,-3.035893738E-1,3.086143017E0,7.804191113E0,8.397728511E0
3.480743702E0,-2.820539773E-1,3.069393158E0,7.789834023E0,8.377484282E0
3.483145837E0,-2.700898647E-1,3.055036306E0,7.773084164E0,8.356257104E0
3.485548858E0,-2.772683203E-1,3.045464993E0,7.758727551E0,8.339639557E0
3.487952608E0,-2.413759828E-1,3.043072224E0,7.715656757E0,8.297584596E0
3.490354691E0,-2.246262282E-1,3.033500910E0,7.698906898E0,8.278028276E0
3.492757712E0,-1.815554202E-1,3.047857761E0,7.655836105E0,8.242222138E0
3.495160681E0,-1.959123611E-1,3.038286448E0,7.631907940E0,8.216786780E0
3.497563649E0,-2.270190418E-1,3.045464993E0,7.579265594E0,8.171392881E0
3.499967399E0,-2.270190418E-1,3.078964472E0,7.543373585E0,8.150708245E0
3.502369535E0,-2.437688112E-1,3.081357241E0,7.495516777E0,8.107833091E0
3.504772504E0,-2.820539773E-1,3.059821844E0,7.459624767E0,8.067717511E0
3.507176254E0,-3.251247704E-1,3.076571703E0,7.406982422E0,8.027103348E0
3.509578389E0,-3.323032558E-1,3.055036306E0,7.392625332E0,8.005909167E0
3.511981410E0,-3.753740489E-1,3.043072224E0,7.339684486E0,7.954380089E0
3.514384379E0,-3.825525343E-1,2.985644341E0,7.354340553E0,7.946492531E0
3.516787347E0,-4.016951025E-1,2.952144861E0,7.342077255E0,7.923548237E0
3.519191045E0,-4.112663865E-1,2.923431158E0,7.344470024E0,7.915606718E0
3.521593181E0,-4.256233275E-1,2.889931440E0,7.347161770E0,7.906557090E0
3.523996202E0,-4.474578202E-1,2.885145903E0,7.354340553E0,7.912686671E0
3.526399952E0,-4.256233275E-1,2.854039192E0,7.397411346E0,7.940301604E0
3.528802087E0,-4.232304990E-1,2.805883646E0,7.428517818E0,7.952042761E0
3.531205108E0,-4.088735580E-1,2.774776936E0,7.433303356E0,7.944845084E0
3.533607972E0,-3.825525343E-1,2.741277456E0,7.457231998E0,7.954323203E0
3.536010993E0,-3.801597059E-1,2.719742060E0,7.497909546E0,7.984996295E0
3.538414743E0,-4.112663865E-1,2.676671267E0,7.545766354E0,8.017000622E0
3.540816879E0,-4.546363056E-1,2.667099953E0,7.586444378E0,8.054455576E0
3.543219899E0,-4.953143001E-1,2.645564556E0,7.641479015E0,8.101638700E0
3.545623649E0,-5.527420044E-1,2.614457846E0,7.684549809E0,8.135921540E0
3.548025733E0,-5.790630579E-1,2.609672308E0,7.715656757E0,8.165602414E0
3.550428754E0,-6.101697683E-1,2.580958366E0,7.753942013E0,8.194953934E0
3.552831722E0,-6.628118753E-1,2.545065880E0,7.792226791E0,8.224079175E0
3.555234691E0,-6.939185858E-1,2.494816780E0,7.830512047E0,8.247578595E0
3.557638441E0,-7.178468108E-1,2.458924294E0,7.868797302E0,8.275239193E0
3.560040577E0,-7.441678643E-1,2.399103880E0,7.854440212E0,8.246315316E0
3.562443545E0,-7.848458290E-1,2.363211393E0,7.887939930E0,8.271659290E0
3.564847295E0,-7.944171429E-1,2.346461773E0,7.921738625E0,8.300055680E0
3.567249431E0,-8.231309652E-1,2.305783749E0,7.967202187E0,8.334896158E0
3.569652452E0,-8.327022791E-1,2.265105724E0,8.012665749E0,8.368208257E0
3.572055420E0,-8.614161611E-1,2.212164640E0,8.103592873E0,8.444165302E0
3.574458389E0,-8.733802438E-1,2.159522533E0,8.192127228E0,8.516882008E0
3.576862087E0,-9.284151793E-1,2.137987137E0,8.261519432E0,8.584034428E0
3.579264222E0,-9.978070259E-1,2.085345030E0,8.326125145E0,8.641101937E0
3.581667243E0,-1.024427176E0,2.018345833E0,8.436195374E0,8.734561427E0
3.584070993E0,-1.036391258E0,1.999203324E0,8.517850876E0,8.810488313E0
3.586473129E0,-1.115354419E0,1.929811478E0,8.592027664E0,8.876436627E0
3.588876149E0,-1.115354419E0,1.805384636E0,8.596813202E0,8.854864561E0
3.591279014E0,-1.294816136E0,1.948953986E0,8.670990944E0,8.981149950E0
3.593682035E0,-1.340279818E0,2.075773716E0,8.785846710E0,9.126680060E0
3.596085785E0,-1.139282703E0,2.181057930E0,8.874381065E0,9.209213759E0
3.598487920E0,2.350948304E-1,2.327319145E0,8.759525299E0,9.066474919E0
3.600890941E0,3.786641955E-1,2.664707184E0,8.551349640E0,8.964911132E0
3.603294639E0,-5.473581702E-2,2.971287489E0,8.326125145E0,8.840582859E0
3.605696774E0,-3.299104273E-1,3.165106058E0,8.474779129E0,9.052547627E0
3.608099795E0,-5.910272002E-1,3.272783279E0,8.687741280E0,9.302541163E0
3.610502764E0,-7.178468108E-1,3.356531858E0,8.948558807E0,9.584274354E0
3.612905733E0,-8.327022791E-1,3.356531858E0,9.216854095E0,9.844292693E0
3.615309431E0,-9.379864931E-1,3.267997503E0,9.451350212E0,1.004428430E1
3.617711566E0,-1.031605721E0,3.100499868E0,9.631111145E0,1.017032997E1
3.620114587E0,-1.084247708E0,2.913859844E0,9.765109062E0,1.024809872E1
3.622518337E0,-1.158425212E0,2.772384167E0,9.808179855E0,1.025809217E1
3.624920472E0,-1.215852976E0,2.597707987E0,9.848857880E0,1.025799136E1
3.627323493E0,-1.280459166E0,2.485245466E0,9.911071777E0,1.029783300E1
3.629726462E0,-1.345065475E0,2.332104683E0,9.968499184E0,1.032564232E1
3.632129327E0,-1.397707582E0,2.243271112E0,1.000439167E1,1.034764246E1
3.634533129E0,-1.450349569E0,2.133201361E0,1.004267693E1,1.036867502E1
3.636935264E0,-1.517348647E0,2.063809633E0,1.007378292E1,1.039436191E1
3.639338285E0,-1.601396561E0,1.984846354E0,1.012164021E1,1.043799245E1
3.641742035E0,-1.599003673E0,1.889133453E0,1.014078236E1,1.043844360E1
3.644144170E0,-1.649253011E0,1.834098577E0,1.019611645E1,1.049022134E1
3.646547139E0,-1.639681697E0,1.791027784E0,1.026311588E1,1.054646311E1
3.648950108E0,-1.637288928E0,1.728814363E0,1.031575775E1,1.058699070E1
3.651353077E0,-1.663609982E0,1.683051586E0,1.035404301E1,1.062103890E1
3.653756827E0,-1.620539188E0,1.623231053E0,1.040429211E1,1.065412223E1
3.656158962E0,-1.589432478E0,1.584945917E0,1.041386318E1,1.065302284E1
3.658561983E0,-1.517348647E0,1.537089467E0,1.038993549E1,1.061205685E1
3.660965681E0,-1.479063511E0,1.532303810E0,1.036122131E1,1.057783016E1
3.663367816E0,-1.388136268E0,1.517946839E0,1.028465080E1,1.048833290E1
3.665770837E0,-1.318744421E0,1.450947881E0,1.016740227E1,1.035472865E1
3.668173806E0,-1.287637711E0,1.431805253E0,1.008096218E1,1.026322930E1
3.670576774E0,-1.258923769E0,1.434198022E0,1.009292603E1,1.027175588E1
3.672980524E0,-1.208674550E0,1.465304732E0,1.004267693E1,1.022073246E1
3.675382660E0,-1.165603757E0,1.467697620E0,9.973284721E0,1.014786562E1
3.677785629E0,-1.108175993E0,1.486840129E0,9.899106979E0,1.007129915E1
3.680189379E0,-1.096211910E0,1.467697620E0,9.812965393E0,9.982490003E0
3.682591514E0,-1.055533886E0,1.477268934E0,9.753145218E0,9.920701433E0
3.684994535E0,-1.038784146E0,1.486840129E0,9.683753014E0,9.852148928E0
3.687397504E0,-1.038784146E0,1.508375525E0,9.643074989E0,9.815455388E0
3.689800368E0,-1.084247708E0,1.561017632E0,9.587740898E0,9.774310445E0
3.692204170E0,-1.062712312E0,1.563410521E0,9.556634903E0,9.741810950E0
3.694606306E0,-1.081854939E0,1.575374603E0,9.513564110E0,9.703613622E0
3.697009327E0,-1.134497046E0,1.577767372E0,9.525527954E0,9.721734219E0
3.699413077E0,-1.199103236E0,1.563410521E0,9.530313492E0,9.731853692E0
3.701815212E0,-1.258923769E0,1.568196177E0,9.547062874E0,9.756563833E0
3.704218181E0,-1.349851131E0,1.572981834E0,9.568598747E0,9.790528684E0
3.706621149E0,-1.414457321E0,1.575374603E0,9.585348129E0,9.816383928E0
3.709024118E0,-1.536491275E0,1.577767372E0,9.645467758E0,9.893695143E0
3.711427868E0,-1.620539188E0,1.551446438E0,9.719645500E0,9.975201349E0
3.713830004E0,-1.670788407E0,1.513161182E0,9.793823242E0,1.004988380E1
3.716233024E0,-1.723430514E0,1.484447360E0,9.894321442E0,1.015240826E1
3.718636722E0,-1.778465390E0,1.465304732E0,9.999606133E0,1.026168504E1
3.721038858E0,-1.811964989E0,1.429412484E0,1.006899738E1,1.033010869E1
3.723441879E0,-1.802393675E0,1.405484200E0,1.013121128E1,1.038582933E1
3.725844847E0,-1.785643935E0,1.360020518E0,1.016740227E1,1.041221633E1
3.728247816E0,-1.742573142E0,1.314556956E0,1.021525860E1,1.044586662E1
3.730651566E0,-1.737787485E0,1.271486163E0,1.028704357E1,1.050998800E1
3.733053649E0,-1.711466432E0,1.235593796E0,1.039950657E1,1.061157605E1
3.735456670E0,-1.733001828E0,1.173380375E0,1.054068279E1,1.074644642E1
3.737860420E0,-1.771286964E0,1.154237866E0,1.074676514E1,1.095274776E1
3.740262556E0,-1.855035782E0,1.151844978E0,1.094297600E1,1.115870191E1
3.742665577E0,-1.945963025E0,1.142273664E0,1.114875889E1,1.137481367E1
3.745068545E0,-1.802393675E0,1.084546804E0,1.128305626E1,1.147746589E1
3.747471514E0,-1.560419440E0,1.048654556E0,1.132134151E1,1.147638266E1
3.749875212E0,-1.440778375E0,1.060618639E0,1.128066349E1,1.142165150E1
3.752277347E0,-1.395314693E0,1.082154036E0,1.131176949E1,1.144875929E1
3.754680368E0,-1.321137190E0,1.113260746E0,1.132373428E1,1.145476805E1
3.757084118E0,-1.278066397E0,1.098903775E0,1.135484028E1,1.147926134E1
3.759486254E0,-1.218245864E0,1.106082320E0,1.133330536E1,1.145213305E1
3.761889274E0,-1.158425212E0,1.103689432E0,1.137398338E1,1.148597307E1
3.764292243E0,-1.108175993E0,1.091725349E0,1.143380356E1,1.153914131E1
3.766695108E0,-1.108175993E0,1.108475089E0,1.150798130E1,1.161423285E1
3.769098910E0,-1.067497969E0,1.079761267E0,1.159651566E1,1.169549536E1
3.771501045E0,-1.067497969E0,1.031904817E0,1.168983555E1,1.178374451E1
3.773904066E0,-1.069890857E0,1.015154958E0,1.171615696E1,1.180862142E1
3.776307816E0,-1.055533886E0,1.010369420E0,1.177597713E1,1.186628146E1
3.778709952E0,-1.048355460E0,9.720842242E-1,1.178554916E1,1.187194870E1
3.781112920E0,-1.014855862E0,9.696913958E-1,1.177119160E1,1.185458500E1
3.783515889E0,-1.010070205E0,9.601200819E-1,1.174965668E1,1.183201185E1
3.785918858E0,-1.012463093E0,9.625129104E-1,1.171615696E1,1.179914601E1
3.788322608E0,-1.002891779E0,9.481559992E-1,1.164197922E1,1.172350083E1
3.790724743E0,-1.017248750E0,9.553344250E-1,1.157976627E1,1.166355202E1
3.793127764E0,-1.050748229E0,9.218349457E-1,1.153908825E1,1.162344222E1
3.795531462E0,-1.069890857E0,9.314061999E-1,1.142183971E1,1.150958759E1
3.797933597E0,-1.096211910E0,9.218349457E-1,1.132851982E1,1.141870490E1
3.800336618E0,-1.134497046E0,8.787640929E-1,1.126600742E1,1.135703452E1
3.802739587E0,-1.175175071E0,8.715856671E-1,1.114636612E1,1.124198273E1
3.805142556E0,-1.223031521E0,8.715856671E-1,1.107936668E1,1.118069022E1
3.807546306E0,-1.230209947E0,8.380861282E-1,1.099561787E1,1.109591894E1
3.809948441E0,-1.273280740E0,8.428717852E-1,1.091665554E1,1.102293268E1
3.812351410E0,-1.299601793E0,8.285148144E-1,1.086401272E1,1.097279244E1
3.814755160E0,-1.304387450E0,8.261220455E-1,1.082094193E1,1.093053925E1
3.817157295E0,-1.299601793E0,8.213363886E-1,1.074197865E1,1.085143601E1
3.819560316E0,-1.120140076E0,7.782655358E-1,1.072522926E1,1.081161199E1
3.821963285E0,-8.255237937E-1,7.256234884E-1,1.068903828E1,1.074539707E1
3.824366254E0,-4.618147612E-1,8.572286963E-1,1.046889782E1,1.051408272E1
3.826769952E0,2.991028305E-4,7.806583643E-1,1.003310490E1,1.006342990E1
3.829172087E0,-3.798605874E-2,6.921239495E-1,9.762716293E0,9.787293187E0
3.831575108E0,-2.198405862E-1,8.333004713E-1,1.009771156E1,1.013442146E1
3.833978858E0,-5.048855543E-1,6.897311211E-1,9.987641335E0,1.002415173E1
3.836380993E0,-7.848458290E-1,6.729813814E-1,1.009292603E1,1.014574012E1
3.838784014E0,-1.084247708E0,7.519445419E-1,1.039711380E1,1.048050519E1
3.841186879E0,-1.364207983E0,7.950153351E-1,1.076590729E1,1.088107865E1
3.843589899E0,-1.620539188E0,7.423732281E-1,1.107218838E1,1.121475014E1
3.845993649E0,-1.823929071E0,6.849454641E-1,1.125404263E1,1.142144225E1
3.848395785E0,-1.953141451E0,5.362913609E-1,1.134048367E1,1.151993662E1
3.850798806E0,-1.989033818E0,3.233301640E-1,1.128544903E1,1.146395035E1
3.853202556E0,-2.020140409E0,1.319043487E-1,1.122532940E1,1.140641864E1
3.855604691E0,-2.056032896E0,-4.785645381E-2,1.113918781E1,1.132744749E1
3.858007660E0,-2.051247120E0,-1.316052526E-1,1.092383385E1,1.111553330E1
3.860410629E0,-1.919641972E0,-2.081755698E-1,1.072044373E1,1.089294616E1
3.862813597E0,-1.531705618E0,-2.297109663E-1,1.042343426E1,1.053787791E1
3.865217347E0,-9.738788009E-1,-1.890329868E-1,1.004746246E1,1.009631989E1
3.867619483E0,-9.164510965E-1,-6.460621208E-2,9.980463028E0,1.002265927E1
3.870022504E0,-8.853443861E-1,1.055833027E-1,9.920642853E0,9.960629354E0
3.872426202E0,-1.019641519E0,1.965105534E-1,1.000439167E1,1.005813790E1
3.874828337E0,-1.218245864E0,2.635096014E-1,1.024158001E1,1.031714696E1
3.877231358E0,-1.469492197E0,2.946162820E-1,1.058375359E1,1.068934264E1
3.879634327E0,-1.766501307E0,3.305086195E-1,1.096451187E1,1.111081830E1
3.882037295E0,-2.084746838E0,2.898306549E-1,1.128544903E1,1.148004926E1
3.884441045E0,-2.108675003E0,1.486541033E-1,1.143858910E1,1.163227961E1
3.886843181E0,-1.955534339E0,-4.307080805E-2,1.151037407E1,1.167538782E1
3.889246149E0,-1.986641049E0,-1.651047617E-1,1.152233791E1,1.169351415E1
3.891649899E0,-2.118246317E0,-2.321037948E-1,1.153190994E1,1.172713889E1
3.894052035E0,-2.211865425E0,-2.775674164E-1,1.146251774E1,1.167727302E1
3.896455056E0,-2.257328987E0,-2.823530734E-1,1.131176949E1,1.153825751E1
3.898858024E0,-2.231008053E0,-2.368894368E-1,1.110808086E1,1.133238607E1
3.901260993E0,-2.199901342E0,-1.890329868E-1,1.094776154E1,1.116820406E1
3.903664743E0,-2.185544491E0,-1.004985496E-1,1.080897808E1,1.102817808E1
3.906066827E0,-2.175973177E0,-1.674975827E-2,1.073240757E1,1.095078591E1
3.908469847E0,-2.140080690E0,6.729813665E-2,1.069382381E1,1.090606905E1
3.910873597E0,-2.079961061E0,1.247258782E-1,1.077069283E1,1.097039737E1
3.913275733E0,-1.989033818E0,1.869392693E-1,1.080897808E1,1.099205208E1
3.915678754E0,-1.890928149E0,2.659024298E-1,1.087597752E1,1.104233672E1
3.918081722E0,-1.749751568E0,3.041875660E-1,1.093340492E1,1.107670997E1
3.920484587E0,-1.452742457E0,3.927220106E-1,1.087837029E1,1.098196846E1
3.922888389E0,-1.165603757E0,3.903291821E-1,1.071565819E1,1.078593155E1
3.925290524E0,-1.299601793E0,4.453641176E-1,1.095733356E1,1.104311880E1
3.927693545E0,-1.371386528E0,4.908277392E-1,1.108175945E1,1.117707500E1
3.930097295E0,-1.476670623E0,5.147559643E-1,1.115354443E1,1.126264104E1
3.932499431E0,-1.670788407E0,4.692923427E-1,1.115354443E1,1.128775099E1
3.934902452E0,-1.881356835E0,4.740779996E-1,1.134287643E1,1.150761049E1
3.937305316E0,-2.120639086E0,4.214358926E-1,1.152951717E1,1.173049379E1
3.939708337E0,-2.156830549E0,2.922234535E-1,1.157737350E1,1.178019057E1
3.942112087E0,-2.039283037E0,1.342971772E-1,1.152233791E1,1.170217852E1
3.944514222E0,-2.087139606E0,4.336991161E-2,1.141226864E1,1.160163386E1
3.946917243E0,-2.199901342E0,-5.264209956E-2,1.135484028E1,1.156610284E1
3.949320993E0,-2.269293070E0,-1.124626622E-1,1.130219841E1,1.152831418E1
3.951723129E0,-2.314756870E0,-1.674975902E-1,1.119422245E1,1.143226885E1
3.954126097E0,-2.312364101E0,-1.627119333E-1,1.111525917E1,1.135440396E1
3.956529066E0,-2.300399780E0,-1.770688742E-1,1.101476097E1,1.125380610E1
3.958932035E0,-2.317149639E0,-1.627119333E-1,1.094297600E1,1.118679495E1
3.961335785E0,-2.305185556E0,-1.507478207E-1,1.086161995E1,1.110456633E1
3.963737920E0,-2.293221474E0,-1.483550072E-1,1.083529949E1,1.107630755E1
3.966140941E0,-2.274078846E0,-1.052841991E-1,1.082333469E1,1.106015792E1
3.968544639E0,-2.274078846E0,-9.810572863E-2,1.077069283E1,1.100858226E1
3.970946774E0,-2.240579367E0,-1.100698411E-1,1.075155067E1,1.098308487E1
3.973349795E0,-2.221436739E0,-1.028913707E-1,1.075155067E1,1.097912609E1
3.975752764E0,-2.202294111E0,-1.172483116E-1,1.072283649E1,1.094728592E1
3.978155733E0,-2.171187401E0,-1.028913707E-1,1.073480034E1,1.095265172E1
3.980559483E0,-2.137687922E0,-1.172483116E-1,1.067946625E1,1.089194455E1
3.982961618E0,-2.103889227E0,-1.292124242E-1,1.063400269E1,1.084089751E1
3.985364639E0,-2.048854351E0,-1.651047617E-1,1.055982590E1,1.075801965E1
3.987768337E0,-2.012962103E0,-1.986042857E-1,1.054546833E1,1.073770750E1
3.990170472E0,-1.945963025E0,-2.560320199E-1,1.048086262E1,1.066305799E1
3.992573493E0,-1.902892232E0,-3.038884699E-1,1.046889782E1,1.064477189E1
3.994976462E0,-1.855035782E0,-3.565305769E-1,1.044018459E1,1.060969963E1
3.997379431E0,-1.828714728E0,-4.163511395E-1,1.044736290E1,1.061437409E1
3.999783181E0,-1.778465390E0,-4.713860750E-1,1.041864872E1,1.057985752E1
4.002185316E0,-1.740180254E0,-5.048855543E-1,1.037318516E1,1.053024725E1
4.004588285E0,-1.749751568E0,-5.721837282E-1,1.034925747E1,1.051171513E1
4.006992035E0,-1.701895118E0,-6.056832075E-1,1.028943634E1,1.044680809E1
4.009394170E0,-1.689931035E0,-6.343970895E-1,1.027986526E1,1.043714312E1
