Time (s),Gyroscope x (rad/s),Gyroscope y (rad/s),Gyroscope z (rad/s),Absolute (rad/s)
1.070284060E-1,-1.099525020E-2,2.128802687E-1,-2.748812735E-1,3.478485574E-1
1.094310620E-1,-3.665083647E-2,1.994416267E-1,-2.895416021E-1,3.534891591E-1
1.118330410E-1,-6.108472496E-2,1.908897758E-1,-3.042019308E-1,3.642925538E-1
1.142357500E-1,-8.307522535E-2,1.860029846E-1,-3.213056624E-1,3.804417591E-1
1.166392910E-1,-1.087308154E-1,1.811162084E-1,-3.408527672E-1,4.010063342E-1
1.190420000E-1,-1.307213157E-1,1.798945218E-1,-3.591781855E-1,4.224441623E-1
1.214439270E-1,-1.514901221E-1,1.823379099E-1,-3.836120665E-1,4.509485426E-1
1.238466350E-1,-1.685938388E-1,1.811162084E-1,-4.068242610E-1,4.761648273E-1
1.262502290E-1,-1.856975704E-1,1.823379099E-1,-4.324798584E-1,5.047469950E-1
1.286528850E-1,-1.991362125E-1,1.896680743E-1,-4.593571424E-1,5.353860232E-1
1.310548640E-1,-2.101314515E-1,2.018850148E-1,-4.837910235E-1,5.647712285E-1
1.334575720E-1,-2.223484069E-1,2.165453583E-1,-5.143333673E-1,6.007241622E-1
1.358611140E-1,-2.321219593E-1,2.397575527E-1,-5.448757410E-1,6.389474636E-1
1.382638220E-1,-2.431172132E-1,2.654131353E-1,-5.741963983E-1,6.776810574E-1
1.406657500E-1,-2.504473627E-1,2.983988822E-1,-6.059604883E-1,7.203845416E-1
1.430685620E-1,-2.577775419E-1,3.350497186E-1,-6.365028620E-1,7.640965046E-1
1.454720520E-1,-2.626643181E-1,3.741439581E-1,-6.646018028E-1,8.066423010E-1
1.478747080E-1,-2.675510943E-1,4.205683470E-1,-6.951441765E-1,8.553869000E-1
1.502766870E-1,-2.687727809E-1,4.694361091E-1,-7.256865501E-1,9.051132732E-1
1.526793950E-1,-2.699944973E-1,5.195255876E-1,-7.537854910E-1,9.544613303E-1
1.550829890E-1,-2.687727809E-1,5.696150661E-1,-7.818844914E-1,1.004013690E0
1.574856450E-1,-2.651077211E-1,6.233696342E-1,-8.063184023E-1,1.053100741E0
1.598875720E-1,-2.626643181E-1,6.722373962E-1,-8.331956863E-1,1.102320603E0
1.622903850E-1,-2.553341687E-1,7.174401283E-1,-8.576295376E-1,1.146928201E0
1.646938750E-1,-2.492256761E-1,7.601994276E-1,-8.771766424E-1,1.187204898E0
1.670965310E-1,-2.394521236E-1,7.968502641E-1,-8.942803741E-1,1.221492960E0
1.694985100E-1,-2.321219593E-1,8.249492049E-1,-9.113841057E-1,1.251016700E0
1.719012180E-1,-2.247917950E-1,8.457180262E-1,-9.248227477E-1,1.273211469E0
1.743048120E-1,-2.199050188E-1,8.530482054E-1,-9.382613897E-1,1.287005786E0
1.767074680E-1,-2.150182426E-1,8.542698622E-1,-9.480349422E-1,1.294132951E0
1.791093950E-1,-2.162399292E-1,8.444963098E-1,-9.553651214E-1,1.293312120E0
1.815122080E-1,-2.174616307E-1,8.237275481E-1,-9.626953006E-1,1.285534471E0
1.839156970E-1,-2.211267054E-1,8.017370105E-1,-9.639169574E-1,1.273112389E0
1.863183540E-1,-2.333436459E-1,7.773031592E-1,-9.626953006E-1,1.259139270E0
1.887203330E-1,-2.443388999E-1,7.479824424E-1,-9.626953006E-1,1.243366991E0
1.911230410E-1,-2.602209449E-1,7.198835015E-1,-9.578084946E-1,1.226109419E0
1.935266350E-1,-2.761029601E-1,6.868977547E-1,-9.541434050E-1,1.207663449E0
1.959292910E-1,-2.944283783E-1,6.526902914E-1,-9.504783154E-1,1.190000720E0
1.983312180E-1,-3.139754832E-1,6.160394549E-1,-9.480349422E-1,1.173394846E0
2.007340310E-1,-3.335226178E-1,5.781669021E-1,-9.455915689E-1,1.157435838E0
2.031375200E-1,-3.530697227E-1,5.378510356E-1,-9.468132257E-1,1.144725841E0
2.055402290E-1,-3.701734245E-1,4.950917065E-1,-9.480349422E-1,1.131774895E0
2.079421560E-1,-3.909422457E-1,4.523324072E-1,-9.517000318E-1,1.123909870E0
2.103448640E-1,-4.080459774E-1,4.107947946E-1,-9.578084946E-1,1.119218922E0
2.127484580E-1,-4.251496792E-1,3.741439581E-1,-9.651386738E-1,1.119030210E0
2.151511140E-1,-4.398100376E-1,3.374931216E-1,-9.736905098E-1,1.120449769E0
2.175530410E-1,-4.556920528E-1,3.081724346E-1,-9.859074950E-1,1.128999152E0
2.199558540E-1,-4.654656053E-1,2.812951505E-1,-9.993461370E-1,1.137751244E0
2.223593430E-1,-4.752391577E-1,2.617480457E-1,-1.014006495E0,1.150031943E0
2.247620520E-1,-4.850127101E-1,2.483094037E-1,-1.032331824E0,1.167306251E0
2.271639790E-1,-4.898995161E-1,2.409792393E-1,-1.049435616E0,1.182957159E0
2.295666870E-1,-4.947862923E-1,2.409792393E-1,-1.071426034E0,1.204507457E0
2.319702810E-1,-4.972296655E-1,2.458660156E-1,-1.094638348E0,1.227159545E0
2.343729370E-1,-4.972296655E-1,2.556395829E-1,-1.116628766E0,1.248778899E0
2.367749160E-1,-4.960079789E-1,2.727433145E-1,-1.138619304E0,1.271560753E0
2.391776250E-1,-4.886777997E-1,2.947337925E-1,-1.163053155E0,1.295517905E0
2.415811660E-1,-4.789042473E-1,3.167243004E-1,-1.187487125E0,1.319010703E0
2.439838750E-1,-4.691306949E-1,3.436015844E-1,-1.211920977E0,1.344209103E0
2.463858020E-1,-4.532486796E-1,3.717005551E-1,-1.235133171E0,1.367168468E0
2.487885100E-1,-4.324798584E-1,4.010212123E-1,-1.257123709E0,1.388602484E0
2.511921040E-1,-4.104893506E-1,4.278984964E-1,-1.279114127E0,1.409869349E0
2.535947600E-1,-3.884988427E-1,4.535540938E-1,-1.298661232E0,1.429392760E0
2.559967390E-1,-3.628432751E-1,4.755446017E-1,-1.320651770E0,1.449799644E0
2.583994470E-1,-3.335226178E-1,4.926483035E-1,-1.340198874E0,1.466312624E0
2.608029890E-1,-3.042019308E-1,5.085303187E-1,-1.357302666E0,1.481017362E0
2.632056970E-1,-2.748812735E-1,5.146388412E-1,-1.373184681E0,1.491994980E0
2.656076250E-1,-2.480039895E-1,5.158604980E-1,-1.389066696E0,1.502372896E0
2.680104370E-1,-2.223484069E-1,5.146388412E-1,-1.402505279E0,1.510401605E0
2.704139270E-1,-1.979145110E-1,5.146388412E-1,-1.413500547E0,1.517236662E0
2.728165830E-1,-1.747023165E-1,5.183038712E-1,-1.420830727E0,1.522471594E0
2.752185620E-1,-1.575985998E-1,5.244123936E-1,-1.424495816E0,1.526117298E0
2.776212700E-1,-1.429382563E-1,5.317425132E-1,-1.428160906E0,1.530628962E0
2.800248120E-1,-1.307213157E-1,5.390726924E-1,-1.429382563E0,1.533239036E0
2.824275200E-1,-1.246128380E-1,5.476245880E-1,-1.429382563E0,1.535758952E0
2.848294470E-1,-1.209477559E-1,5.549547076E-1,-1.428160906E0,1.536960201E0
2.872322600E-1,-1.160609797E-1,5.586197972E-1,-1.425717473E0,1.535642062E0
2.896357500E-1,-1.148392856E-1,5.598415136E-1,-1.422052383E0,1.532593737E0
2.920384060E-1,-1.185043678E-1,5.573981404E-1,-1.417165637E0,1.527447025E0
2.944403850E-1,-1.209477559E-1,5.537330508E-1,-1.411057115E0,1.520635009E0
2.968430930E-1,-1.294996142E-1,5.488462448E-1,-1.404948711E0,1.513896705E0
2.992466350E-1,-1.356080920E-1,5.402944088E-1,-1.395175099E0,1.502272000E0
3.016493430E-1,-1.478250325E-1,5.329642296E-1,-1.387844920E0,1.493993518E0
3.040512700E-1,-1.612636745E-1,5.244123936E-1,-1.379293084E0,1.484406866E0
3.064540830E-1,-1.734806150E-1,5.146388412E-1,-1.371962905E0,1.475544263E0
3.088575720E-1,-1.856975704E-1,5.012001991E-1,-1.362189412E0,1.463299430E0
3.112602290E-1,-2.003578991E-1,4.914266169E-1,-1.353637576E0,1.453952577E0
3.136622080E-1,-2.162399292E-1,4.779879749E-1,-1.345085621E0,1.443775446E0
3.160649160E-1,-2.296785712E-1,4.633276463E-1,-1.337755442E0,1.434229541E0
3.184684580E-1,-2.418955117E-1,4.462239146E-1,-1.331647038E0,1.425101069E0
3.208711660E-1,-2.565558553E-1,4.254551232E-1,-1.324316859E0,1.414442686E0
3.232730930E-1,-2.663294077E-1,4.083513916E-1,-1.319430113E0,1.406619364E0
3.256759060E-1,-2.748812735E-1,3.912476599E-1,-1.315765023E0,1.399954300E0
3.280793950E-1,-2.822114229E-1,3.765873313E-1,-1.312099934E0,1.393939576E0
3.304820520E-1,-2.883199155E-1,3.668137789E-1,-1.308434844E0,1.389130110E0
3.328840310E-1,-2.944283783E-1,3.570402265E-1,-1.307213187E0,1.386712699E0
3.352867390E-1,-2.993151546E-1,3.509317636E-1,-1.304769754E0,1.383895508E0
3.376903330E-1,-3.005368412E-1,3.448232710E-1,-1.303548098E0,1.381471362E0
3.400929890E-1,-3.005368412E-1,3.411581814E-1,-1.303548098E0,1.380561096E0
3.424949160E-1,-2.993151546E-1,3.362714052E-1,-1.302326322E0,1.377941170E0
3.448977290E-1,-2.968717813E-1,3.301629424E-1,-1.302326322E0,1.375933963E0
3.473012180E-1,-2.968717813E-1,3.216110766E-1,-1.301104665E0,1.372749026E0
3.497038750E-1,-2.956500649E-1,3.155026138E-1,-1.301104665E0,1.371066814E0
3.521058540E-1,-2.932066917E-1,3.057290614E-1,-1.301104665E0,1.368325170E0
3.545085620E-1,-2.895416021E-1,2.959555089E-1,-1.301104665E0,1.365392746E0
3.569121560E-1,-2.895416021E-1,2.898470163E-1,-1.301104665E0,1.364081735E0
3.593148120E-1,-2.895416021E-1,2.825168669E-1,-1.298661232E0,1.360209953E0
3.617167390E-1,-2.858765125E-1,2.776300907E-1,-1.297439575E0,1.357259481E0
3.641195520E-1,-2.895416021E-1,2.739650011E-1,-1.293774486E0,1.353788603E0
3.665230410E-1,-2.919849753E-1,2.739650011E-1,-1.290109396E0,1.350812460E0
3.689256970E-1,-2.944283783E-1,2.739650011E-1,-1.284000993E0,1.345512334E0
3.713276770E-1,-3.005368412E-1,2.776300907E-1,-1.277892470E0,1.341793585E0
3.737303850E-1,-3.029802442E-1,2.812951505E-1,-1.268118858E0,1.333810117E0
3.761339790E-1,-3.115321100E-1,2.898470163E-1,-1.258345366E0,1.328343558E0
3.785366350E-1,-3.164188862E-1,2.935121059E-1,-1.246128440E0,1.318751818E0
3.809385620E-1,-3.274141252E-1,2.971771955E-1,-1.233911514E0,1.310744796E0
3.833413750E-1,-3.335226178E-1,2.983988822E-1,-1.221694469E0,1.301082859E0
3.857448640E-1,-3.396310806E-1,2.971771955E-1,-1.207034230E0,1.288640830E0
3.881475720E-1,-3.445178568E-1,2.947337925E-1,-1.191152096E0,1.274521038E0
3.905495000E-1,-3.506263196E-1,2.861819267E-1,-1.176491857E0,1.260544327E0
3.929522080E-1,-3.518480062E-1,2.764083743E-1,-1.158166409E0,1.241590931E0
3.953558020E-1,-3.542914093E-1,2.641914487E-1,-1.139840961E0,1.222520732E0
3.977584580E-1,-3.530697227E-1,2.483094037E-1,-1.122737288E0,1.202852779E0
4.001603850E-1,-3.518480062E-1,2.348707765E-1,-1.103190184E0,1.181520157E0
4.025631970E-1,-3.481829464E-1,2.153236568E-1,-1.084864736E0,1.159537466E0
4.049666870E-1,-3.408527672E-1,1.945548505E-1,-1.067761064E0,1.137605330E0
4.073693430E-1,-3.347443044E-1,1.750077456E-1,-1.049435616E0,1.115345943E0
4.097713220E-1,-3.237490356E-1,1.517955512E-1,-1.031110168E0,1.091349396E0
4.121740310E-1,-3.115321100E-1,1.273616552E-1,-1.015228152E0,1.069561334E0
4.145776250E-1,-2.968717813E-1,9.926267713E-2,-9.981244206E-1,1.046058456E0
4.169802810E-1,-2.858765125E-1,6.994201243E-2,-9.834640622E-1,1.026556782E0
4.193822080E-1,-2.675510943E-1,4.428642616E-2,-9.675820470E-1,1.004868097E0
4.217850200E-1,-2.528907657E-1,2.229592577E-2,-9.504783154E-1,9.837986967E-1
4.241885100E-1,-2.370087355E-1,3.970507067E-3,-9.370396733E-1,9.665569073E-1
4.265912180E-1,-2.211267054E-1,-1.068982668E-2,-9.223793745E-1,9.485752489E-1
4.289931450E-1,-2.052446753E-1,-2.168507688E-2,-9.089407325E-1,9.320777191E-1
4.313958540E-1,-1.893626451E-1,-2.779355086E-2,-8.967237473E-1,9.169210281E-1
4.337994470E-1,-1.734806150E-1,-3.268032894E-2,-8.845068216E-1,9.019511324E-1
4.362021040E-1,-1.588202864E-1,-3.268032894E-2,-8.722898960E-1,8.872325230E-1
4.386040310E-1,-1.441599578E-1,-3.145863488E-2,-8.625163436E-1,8.750463885E-1
4.410068430E-1,-1.331647038E-1,-2.779355086E-2,-8.527427912E-1,8.635250939E-1
4.434103330E-1,-1.197260618E-1,-2.290677279E-2,-8.441908956E-1,8.529462575E-1
4.458130410E-1,-1.087308154E-1,-1.557660475E-2,-8.356390595E-1,8.428271820E-1
4.482149680E-1,-9.773556143E-2,-1.068982668E-2,-8.283088803E-1,8.341235601E-1
4.506176770E-1,-8.918370306E-2,-5.803049076E-3,-8.222004175E-1,8.270434903E-1
4.530212700E-1,-7.941014320E-2,3.054236295E-4,-8.148702383E-1,8.187304620E-1
4.554239270E-1,-7.330167294E-2,2.748812549E-3,-8.087617755E-1,8.120814619E-1
4.578259060E-1,-6.719319522E-2,1.527118147E-3,-8.014315963E-1,8.042449012E-1
4.602286140E-1,-6.108472496E-2,3.054236295E-4,-7.928797603E-1,7.952293701E-1
4.626321560E-1,-5.741964281E-2,-2.137965523E-3,-7.855495811E-1,7.876482277E-1
4.650348640E-1,-5.131116882E-2,-8.246437646E-3,-7.769976854E-1,7.787337433E-1
4.674367910E-1,-4.886778072E-2,-1.679829881E-2,-7.672241330E-1,7.689623613E-1
4.698395000E-1,-4.520269856E-2,-2.779355086E-2,-7.562289238E-1,7.580883528E-1
4.722430930E-1,-4.520269856E-2,-4.123219103E-2,-7.440119386E-1,7.465233702E-1
4.746457500E-1,-4.031591862E-2,-5.711421743E-2,-7.305732965E-1,7.339105863E-1
4.770476770E-1,-4.275930673E-2,-7.421794534E-2,-7.171346545E-1,7.222318010E-1
4.794504890E-1,-4.398100078E-2,-9.376505762E-2,-7.024743557E-1,7.100679086E-1
4.818539790E-1,-4.153761268E-2,-1.145338640E-1,-6.890357137E-1,6.997239413E-1
4.842566870E-1,-4.520269856E-2,-1.340809762E-1,-6.743753552E-1,6.890595852E-1
4.866586140E-1,-4.764608666E-2,-1.475196183E-1,-6.560499668E-1,6.741170123E-1
4.890613220E-1,-4.886778072E-2,-1.585148573E-1,-6.377245188E-1,6.589442934E-1
4.914649160E-1,-5.375456065E-2,-1.634016484E-1,-6.206207871E-1,6.440184880E-1
4.938675720E-1,-5.497625470E-2,-1.621799469E-1,-6.022953987E-1,6.261664883E-1
4.962695000E-1,-6.230641901E-2,-1.560714692E-1,-5.803049207E-1,6.041474938E-1
4.986723120E-1,-6.597150117E-2,-1.462979168E-1,-5.558710098E-1,5.785740220E-1
5.010758020E-1,-7.207997888E-2,-1.340809762E-1,-5.338805318E-1,5.551591247E-1
5.034785100E-1,-7.574506104E-2,-1.206423342E-1,-5.106683373E-1,5.301641612E-1
5.058804370E-1,-7.941014320E-2,-1.047603041E-1,-4.886777997E-1,5.060500806E-1
5.082831450E-1,-8.307522535E-2,-9.498675168E-2,-4.666872919E-1,4.834470027E-1
5.106867390E-1,-8.429691941E-2,-8.399149776E-2,-4.446968138E-1,4.603431313E-1
5.130893950E-1,-8.551861346E-2,-7.543963939E-2,-4.227063060E-1,4.378186766E-1
5.154913750E-1,-8.796200156E-2,-6.933116168E-2,-4.031592011E-1,4.184273714E-1
5.178940830E-1,-8.674030751E-2,-6.688777357E-2,-3.823903799E-1,3.977691012E-1
5.202976250E-1,-8.674030751E-2,-6.688777357E-2,-3.616215885E-1,3.778465673E-1
5.227003330E-1,-8.796200156E-2,-6.566607952E-2,-3.432961702E-1,3.604186569E-1
5.251022600E-1,-8.307522535E-2,-6.688777357E-2,-3.237490356E-1,3.408649371E-1
5.275049680E-1,-8.307522535E-2,-6.933116168E-2,-3.054236174E-1,3.240245193E-1
5.299085620E-1,-8.063183725E-2,-7.421794534E-2,-2.883199155E-1,3.084447605E-1
5.323112180E-1,-7.818844914E-2,-8.154810965E-2,-2.699944973E-1,2.926782471E-1
5.347131450E-1,-7.818844914E-2,-9.498675168E-2,-2.565558553E-1,2.845291258E-1
5.371159580E-1,-7.330167294E-2,-1.084253863E-1,-2.418955117E-1,2.750320677E-1
5.395194470E-1,-6.963659078E-2,-1.267508119E-1,-2.284568697E-1,2.703841053E-1
5.419221560E-1,-6.597150117E-2,-1.475196183E-1,-2.186833173E-1,2.719129824E-1
5.443240830E-1,-6.352811307E-2,-1.719534993E-1,-2.076880634E-1,2.770165315E-1
5.467267910E-1,-6.230641901E-2,-1.963873953E-1,-2.015796006E-1,2.882437063E-1
5.491303850E-1,-5.864133686E-2,-2.220429778E-1,-1.942494214E-1,3.007901728E-1
5.515330410E-1,-5.619794875E-2,-2.476985604E-1,-1.869192570E-1,3.153594693E-1
5.539349680E-1,-5.619794875E-2,-2.745758295E-1,-1.820324808E-1,3.341944339E-1
5.563377810E-1,-5.741964281E-2,-2.965663373E-1,-1.783674061E-1,3.508041325E-1
5.587412700E-1,-6.352811307E-2,-3.222219348E-1,-1.734806150E-1,3.714274091E-1
5.611439790E-1,-6.963659078E-2,-3.466558158E-1,-1.698155403E-1,3.922458759E-1
5.635459060E-1,-7.696675509E-2,-3.686463237E-1,-1.649287641E-1,4.111270978E-1
5.659486140E-1,-8.551861346E-2,-3.906368315E-1,-1.624853760E-1,4.316388129E-1
5.683522080E-1,-9.773556143E-2,-4.150707126E-1,-1.600419879E-1,4.554661066E-1
5.707548640E-1,-1.111742035E-1,-4.358395338E-1,-1.539335102E-1,4.754064874E-1
5.731568430E-1,-1.233911440E-1,-4.566083252E-1,-1.527118087E-1,4.970286044E-1
5.755595520E-1,-1.380514801E-1,-4.761554301E-1,-1.478250325E-1,5.173339782E-1
5.779630930E-1,-1.539335102E-1,-4.957025647E-1,-1.429382563E-1,5.383752440E-1
5.803658020E-1,-1.710372269E-1,-5.140279531E-1,-1.380514801E-1,5.590498017E-1
5.827677290E-1,-1.918060333E-1,-5.335750580E-1,-1.319430023E-1,5.821519155E-1
5.851704370E-1,-2.064663768E-1,-5.531222224E-1,-1.258345395E-1,6.036612370E-1
5.875740310E-1,-2.247917950E-1,-5.690042377E-1,-1.197260618E-1,6.234031628E-1
5.899766870E-1,-2.406738251E-1,-5.861079693E-1,-1.148392856E-1,6.439211934E-1
5.923786140E-1,-2.614426315E-1,-6.032116413E-1,-1.099525094E-1,6.665628913E-1
5.947814270E-1,-2.761029601E-1,-6.190937161E-1,-1.050657257E-1,6.859655098E-1
5.971849160E-1,-2.907632887E-1,-6.349757314E-1,-1.038440317E-1,7.060602329E-1
5.995876250E-1,-3.066453338E-1,-6.508577466E-1,-1.038440317E-1,7.269324246E-1
6.019895520E-1,-3.213056624E-1,-6.667397618E-1,-1.038440317E-1,7.473706053E-1
6.043922600E-1,-3.396310806E-1,-6.838434935E-1,-1.050657257E-1,7.707334177E-1
6.067958540E-1,-3.567348123E-1,-6.985038519E-1,-1.099525094E-1,7.919955251E-1
6.091985100E-1,-3.726168275E-1,-7.119424939E-1,-1.160609797E-1,8.118962777E-1
6.116004370E-1,-3.933856487E-1,-7.204943299E-1,-1.258345395E-1,8.304809928E-1
6.140032500E-1,-4.129327536E-1,-7.302678823E-1,-1.368297935E-1,8.500159006E-1
6.164067390E-1,-4.324798584E-1,-7.351546884E-1,-1.502684206E-1,8.660668808E-1
6.188094470E-1,-4.544703662E-1,-7.400414348E-1,-1.649287641E-1,8.839717960E-1
6.212113750E-1,-4.789042473E-1,-7.400414348E-1,-1.820324808E-1,9.000813448E-1
6.236140830E-1,-5.045598149E-1,-7.400414348E-1,-2.003578991E-1,9.178154606E-1
6.260176770E-1,-5.338805318E-1,-7.375980616E-1,-2.211267054E-1,9.370039181E-1
6.284203330E-1,-5.619794726E-1,-7.327113152E-1,-2.406738251E-1,9.542592358E-1
6.308222600E-1,-5.974085927E-1,-7.241594195E-1,-2.602209449E-1,9.741759757E-1
6.332250720E-1,-6.303943992E-1,-7.168292403E-1,-2.822114229E-1,9.954318387E-1
6.356285620E-1,-6.621584296E-1,-7.094991207E-1,-3.005368412E-1,1.015955305E0
6.380312180E-1,-6.988092661E-1,-6.997255087E-1,-3.176405728E-1,1.038674979E0
6.404331970E-1,-7.366818190E-1,-6.948387623E-1,-3.359659910E-1,1.066946182E0
6.428359060E-1,-7.721109390E-1,-6.936170459E-1,-3.555130959E-1,1.097109598E0
6.452395000E-1,-8.099834919E-1,-6.985038519E-1,-3.713951409E-1,1.132216958E0
6.476421560E-1,-8.429692388E-1,-7.033905983E-1,-3.848337829E-1,1.163379780E0
6.500440830E-1,-8.808417320E-1,-7.143858671E-1,-3.982724249E-1,1.202019238E0
6.524468950E-1,-9.138274789E-1,-7.314895988E-1,-4.080459774E-1,1.239620593E0
6.548503850E-1,-9.480349422E-1,-7.522584200E-1,-4.178195298E-1,1.280326576E0
6.572530930E-1,-9.822424054E-1,-7.779139876E-1,-4.251496792E-1,1.323141173E0
6.596550200E-1,-1.014006495E0,-8.072346449E-1,-4.312581718E-1,1.365950422E0
6.620577290E-1,-1.044548869E0,-8.402203918E-1,-4.337015450E-1,1.408953398E0
6.644613220E-1,-1.079977989E0,-8.744278550E-1,-4.337015450E-1,1.455703803E0
6.668639790E-1,-1.109298587E0,-9.110786915E-1,-4.324798584E-1,1.499215316E0
6.692659060E-1,-1.143506050E0,-9.489512444E-1,-4.300364852E-1,1.546947294E0
6.716687180E-1,-1.174048424E0,-9.917105436E-1,-4.263713956E-1,1.594889360E0
6.740722080E-1,-1.205812454E0,-1.030804753E0,-4.202629030E-1,1.641085928E0
6.764749160E-1,-1.236354828E0,-1.069898963E0,-4.165978432E-1,1.687249482E0
6.788768430E-1,-1.266897202E0,-1.106549859E0,-4.104893506E-1,1.731468341E0
6.812795520E-1,-1.292552829E0,-1.141978979E0,-4.056025743E-1,1.771813267E0
6.836831450E-1,-1.319430113E0,-1.174964666E0,-4.019374847E-1,1.811902738E0
6.860858020E-1,-1.346307397E0,-1.209172130E0,-3.982724249E-1,1.852906304E0
6.884877290E-1,-1.369519591E0,-1.240936160E0,-3.958290219E-1,1.890023037E0
6.908905410E-1,-1.391510010E0,-1.272700310E0,-3.933856487E-1,1.926348477E0
6.932940310E-1,-1.411057115E0,-1.304464340E0,-3.921639323E-1,1.961250098E0
6.956966870E-1,-1.429382563E0,-1.331341624E0,-3.909422457E-1,1.992094594E0
6.980986660E-1,-1.447708011E0,-1.355775476E0,-3.921639323E-1,2.021825456E0
7.005013750E-1,-1.462368369E0,-1.377766013E0,-3.921639323E-1,2.047084020E0
7.029049680E-1,-1.477181435E0,-1.392426372E0,-3.970507085E-1,2.068469351E0
7.053076250E-1,-1.490620017E0,-1.409530044E0,-4.007157981E-1,2.090286136E0
7.077095520E-1,-1.501615286E0,-1.420525312E0,-4.031592011E-1,2.106009965E0
7.101123640E-1,-1.515053868E0,-1.429077148E0,-4.080459774E-1,2.122298575E0
7.125158540E-1,-1.524827480E0,-1.436407328E0,-4.117110670E-1,2.134917061E0
7.149185100E-1,-1.534600973E0,-1.437628984E0,-4.153761268E-1,2.143435227E0
7.173204890E-1,-1.548039675E0,-1.437628984E0,-4.190412164E-1,2.153787239E0
7.197231970E-1,-1.556591511E0,-1.437628984E0,-4.227063060E-1,2.160656116E0
7.221267390E-1,-1.567586780E0,-1.436407328E0,-4.263713956E-1,2.168498764E0
7.245294470E-1,-1.578582048E0,-1.441294074E0,-4.263713956E-1,2.179688615E0
7.269313750E-1,-1.590798974E0,-1.448624253E0,-4.263713956E-1,2.193386918E0
7.293341870E-1,-1.600572586E0,-1.460841179E0,-4.251496792E-1,2.208311980E0
7.317376770E-1,-1.609124422E0,-1.480388284E0,-4.239279926E-1,2.227228282E0
7.341403330E-1,-1.618897915E0,-1.503600478E0,-4.227063060E-1,2.249516721E0
7.365423120E-1,-1.622563004E0,-1.526812673E0,-4.227063060E-1,2.267718735E0
7.389450200E-1,-1.631114841E0,-1.554911733E0,-4.202629030E-1,2.292358398E0
7.413486140E-1,-1.633558273E0,-1.586675763E0,-4.202629030E-1,2.315744700E0
7.437512700E-1,-1.637223363E0,-1.624548316E0,-4.190412164E-1,2.344195622E0
7.461531970E-1,-1.638445020E0,-1.661199093E0,-4.190412164E-1,2.370586436E0
7.485560100E-1,-1.639666796E0,-1.702736735E0,-4.190412164E-1,2.400711380E0
7.509595000E-1,-1.639666796E0,-1.746717691E0,-4.214846194E-1,2.432525268E0
7.533621560E-1,-1.636001706E0,-1.793142080E0,-4.214846194E-1,2.463637430E0
7.557641350E-1,-1.627449751E0,-1.844453335E0,-4.251496792E-1,2.496267823E0
7.581668430E-1,-1.620119691E0,-1.895917177E0,-4.300364852E-1,2.530656266E0
7.605704370E-1,-1.612789512E0,-1.950893402E0,-4.361449480E-1,2.568520487E0
7.629730930E-1,-1.610346079E0,-2.005869627E0,-4.446968138E-1,2.610456418E0
7.653750200E-1,-1.606680989E0,-2.059624195E0,-4.544703662E-1,2.651418288E0
7.677778330E-1,-1.606680989E0,-2.113378763E0,-4.642439187E-1,2.695053991E0
7.701813220E-1,-1.612789512E0,-2.161024809E0,-4.715740979E-1,2.737425864E0
7.725839790E-1,-1.617676258E0,-2.198897362E0,-4.825693369E-1,2.772165083E0
7.749859580E-1,-1.628671527E0,-2.236769915E0,-4.898995161E-1,2.809930983E0
7.773886660E-1,-1.637223363E0,-2.268533945E0,-4.960079789E-1,2.841262134E0
7.797922080E-1,-1.643331885E0,-2.292967796E0,-5.045598149E-1,2.865802088E0
7.821949160E-1,-1.650662065E0,-2.313736677E0,-5.131117105E-1,2.888138897E0
7.845968430E-1,-1.656770468E0,-2.332062006E0,-5.204418898E-1,2.907621252E0
7.869996560E-1,-1.656770468E0,-2.346722364E0,-5.265503526E-1,2.920487889E0
7.894031450E-1,-1.655548811E0,-2.358939409E0,-5.326588154E-1,2.930727284E0
7.918058020E-1,-1.653105378E0,-2.367491245E0,-5.375455618E-1,2.937129112E0
7.942077810E-1,-1.643331885E0,-2.374821424E0,-5.412106514E-1,2.938235091E0
7.966104890E-1,-1.634779930E0,-2.378486633E0,-5.424323678E-1,2.936654041E0
7.990140310E-1,-1.627449751E0,-2.377264738E0,-5.460974574E-1,2.932269217E0
8.014167390E-1,-1.616454601E0,-2.371156454E0,-5.460974574E-1,2.921220779E0
8.038186660E-1,-1.604237556E0,-2.361382723E0,-5.473191738E-1,2.906761906E0
8.062214790E-1,-1.595685720E0,-2.345500708E0,-5.485408306E-1,2.889374246E0
8.086249680E-1,-1.583468795E0,-2.324732065E0,-5.522059202E-1,2.866475881E0
8.110276250E-1,-1.572473526E0,-2.296633005E0,-5.558710098E-1,2.838342603E0
8.134296040E-1,-1.557813168E0,-2.264868975E0,-5.619794726E-1,2.805750214E0
8.158323120E-1,-1.538266063E0,-2.229439735E0,-5.668662786E-1,2.767309414E0
8.182358540E-1,-1.519940734E0,-2.189123869E0,-5.754181147E-1,2.726460921E0
8.206385620E-1,-1.497950196E0,-2.141477823E0,-5.864133835E-1,2.678369413E0
8.230404890E-1,-1.473516345E0,-2.087723255E0,-5.974085927E-1,2.624259102E0
8.254431970E-1,-1.441599488E0,-2.027860165E0,-6.108472347E-1,2.561944628E0
8.278467910E-1,-1.408613801E0,-1.960667014E0,-6.267293096E-1,2.494232870E0
8.302494470E-1,-1.369519591E0,-1.887365341E0,-6.438329816E-1,2.419142978E0
8.326513750E-1,-1.325538516E0,-1.807802439E0,-6.609367132E-1,2.337100630E0
8.350541870E-1,-1.280335903E0,-1.722283840E0,-6.780404449E-1,2.250613360E0
8.374576770E-1,-1.226581335E0,-1.631878495E0,-6.963658929E-1,2.156954949E0
8.398603850E-1,-1.170383334E0,-1.535364628E0,-7.134696245E-1,2.058198386E0
8.422623120E-1,-1.106855273E0,-1.437628984E0,-7.293516397E-1,1.955469127E0
8.446650200E-1,-1.043327093E0,-1.341115117E0,-7.476770282E-1,1.856378765E0
8.470686140E-1,-9.736905098E-1,-1.245823026E0,-7.623373866E-1,1.755365065E0
8.494712700E-1,-9.016105533E-1,-1.150530815E0,-7.745543122E-1,1.654254252E0
8.518732500E-1,-8.283088803E-1,-1.058903694E0,-7.879929543E-1,1.558302131E0
8.542759580E-1,-7.513421178E-1,-9.721634388E-1,-7.989882231E-1,1.465605305E0
8.566795000E-1,-6.731536984E-1,-8.854231238E-1,-8.087617755E-1,1.375211118E0
8.590822080E-1,-5.925218463E-1,-8.047912717E-1,-8.185353279E-1,1.291809279E0
8.614841350E-1,-5.118899941E-1,-7.290462255E-1,-8.222004175E-1,1.212251332E0
8.638868430E-1,-4.349232614E-1,-6.545228362E-1,-8.270871639E-1,1.140890689E0
8.662904370E-1,-3.579564989E-1,-5.848862529E-1,-8.270871639E-1,1.074382595E0
8.686930930E-1,-2.846548259E-1,-5.140279531E-1,-8.246437907E-1,1.012566288E0
8.710950200E-1,-2.137965411E-1,-4.468347728E-1,-8.173136115E-1,9.557048785E-1
8.734978330E-1,-1.453816444E-1,-3.820849657E-1,-8.087617755E-1,9.062120905E-1
8.759013220E-1,-7.818844914E-2,-3.197785318E-1,-7.977665067E-1,8.630197809E-1
8.783040310E-1,-1.710372418E-2,-2.635805905E-1,-7.879929543E-1,8.310837268E-1
8.807059580E-1,4.275930673E-2,-2.086043358E-1,-7.733326554E-1,8.021144078E-1
8.831086660E-1,1.026223376E-1,-1.597365588E-1,-7.598940134E-1,7.832534864E-1
8.855122600E-1,1.514901221E-1,-1.120904684E-1,-7.440119386E-1,7.675071954E-1
8.879149160E-1,2.015796006E-1,-6.566607952E-2,-7.281299233E-1,7.583663723E-1
8.903168430E-1,2.443388999E-1,-2.290677279E-2,-7.098045349E-1,7.510317543E-1
8.927196560E-1,2.846548259E-1,1.618745178E-2,-6.902574301E-1,7.468237565E-1
8.951231450E-1,3.225273490E-1,5.650337040E-2,-6.707102656E-1,7.463704055E-1
8.975258020E-1,3.506263196E-1,9.559759498E-2,-6.499415040E-1,7.446486922E-1
8.999277810E-1,3.775036037E-1,1.298050433E-1,-6.291726828E-1,7.451285693E-1
9.023304890E-1,3.958290219E-1,1.640124917E-1,-6.084038615E-1,7.441343768E-1
9.047340830E-1,4.080459774E-1,1.969982386E-1,-5.876350403E-1,7.420409464E-1
9.071367390E-1,4.214846194E-1,2.238755226E-1,-5.680879354E-1,7.419524489E-1
9.095386660E-1,4.263713956E-1,2.507528067E-1,-5.485408306E-1,7.386247896E-1
9.119414790E-1,4.312581718E-1,2.776300907E-1,-5.338805318E-1,7.403313449E-1
9.143449680E-1,4.373666346E-1,3.020639718E-1,-5.216635466E-1,7.447583984E-1
9.167476250E-1,4.349232614E-1,3.240544796E-1,-5.118899941E-1,7.457887872E-1
9.191496040E-1,4.324798584E-1,3.472666740E-1,-5.057815313E-1,7.506316862E-1
9.215523120E-1,4.312581718E-1,3.680354655E-1,-5.045598149E-1,7.589560735E-1
9.239559060E-1,4.275930822E-1,3.888042867E-1,-5.057815313E-1,7.679971190E-1
9.263585620E-1,4.251496792E-1,4.095730782E-1,-5.131117105E-1,7.821674907E-1
9.287604890E-1,4.214846194E-1,4.340069890E-1,-5.228852630E-1,7.996376361E-1
9.311633020E-1,4.129327536E-1,4.572191834E-1,-5.351021886E-1,8.160252404E-1
9.335667910E-1,4.104893506E-1,4.804313779E-1,-5.522059202E-1,8.391943721E-1
9.359694470E-1,4.056025743E-1,5.060869455E-1,-5.693096519E-1,8.629895274E-1
9.383714270E-1,4.007157981E-1,5.317425132E-1,-5.913001299E-1,8.904825067E-1
9.407741350E-1,3.970507085E-1,5.549547076E-1,-6.120689511E-1,9.166528206E-1
9.431776770E-1,3.982724249E-1,5.781669021E-1,-6.389462352E-1,9.492893039E-1
9.455803850E-1,3.933856487E-1,6.001574397E-1,-6.658235192E-1,9.789086678E-1
9.479823120E-1,3.946073353E-1,6.209262609E-1,-6.975875497E-1,1.013850462E0
9.503850200E-1,3.970507085E-1,6.392516494E-1,-7.269082665E-1,1.046273179E0
9.527886140E-1,4.019374847E-1,6.600204706E-1,-7.586722970E-1,1.082942481E0
9.551912700E-1,4.092676640E-1,6.820109487E-1,-7.904363275E-1,1.121351213E0
9.575932500E-1,4.153761268E-1,6.991146803E-1,-8.234221339E-1,1.157291093E0
9.599959580E-1,4.251496792E-1,7.174401283E-1,-8.539644480E-1,1.193619649E0
9.623995000E-1,4.349232614E-1,7.345438004E-1,-8.857285380E-1,1.230133278E0
9.648022080E-1,4.471401870E-1,7.504258752E-1,-9.113841057E-1,1.262416068E0
9.672041350E-1,4.630222321E-1,7.650861740E-1,-9.358180165E-1,1.294411759E0
9.696068430E-1,4.776825607E-1,7.699729800E-1,-9.565867782E-1,1.317610444E0
9.720104370E-1,4.972296655E-1,7.699729800E-1,-9.761339426E-1,1.339004557E0
9.744130930E-1,5.106683373E-1,7.601994276E-1,-9.920159578E-1,1.350104063E0
9.768150720E-1,5.314370990E-1,7.430956960E-1,-1.004232883E0,1.357608297E0
9.792177810E-1,5.534276366E-1,7.186617851E-1,-1.014006495E0,1.360502144E0
9.816213220E-1,5.741963983E-1,6.905628443E-1,-1.016449809E0,1.356373385E0
9.840240310E-1,5.974085927E-1,6.600204706E-1,-1.017671585E0,1.352101883E0
9.864259580E-1,6.169557571E-1,6.258130074E-1,-1.012784719E0,1.340898659E0
9.888286660E-1,6.377245188E-1,5.928272605E-1,-1.004232883E0,1.329142734E0
9.912322600E-1,6.597150564E-1,5.610632300E-1,-9.907942414E-1,1.315936599E0
9.936349160E-1,6.817055345E-1,5.305208564E-1,-9.724688530E-1,1.300719218E0
9.960368430E-1,6.963658929E-1,5.060869455E-1,-9.529217482E-1,1.284176511E0
9.984396560E-1,7.134696245E-1,4.877615273E-1,-9.272661209E-1,1.267585371E0
1.000843145E0,7.366818190E-1,4.755446017E-1,-8.955020905E-1,1.253302344E0
1.003245854E0,7.525638342E-1,4.682144225E-1,-8.625163436E-1,1.236734213E0
1.005647781E0,7.696675658E-1,4.596625566E-1,-8.246437907E-1,1.218078491E0
1.008050489E0,7.928797603E-1,4.462239146E-1,-7.855495811E-1,1.202024226E0
1.010454083E0,8.124268651E-1,4.291202128E-1,-7.415685654E-1,1.180722451E0
1.012856739E0,8.331956863E-1,4.010212123E-1,-6.988092661E-1,1.159037297E0
1.015258666E0,8.551861644E-1,3.668137789E-1,-6.548282504E-1,1.137846985E0
1.017661479E0,8.783983588E-1,3.216110766E-1,-6.084038615E-1,1.115873030E0
1.020064968E0,9.016105533E-1,2.678565085E-1,-5.595360994E-1,1.094408217E0
1.022467677E0,9.199360013E-1,2.104368806E-1,-5.094466209E-1,1.072427987E0
1.024869604E0,9.333745837E-1,1.505738497E-1,-4.581354558E-1,1.050594448E0
1.027272312E0,9.394831061E-1,8.948912472E-2,-4.068242610E-1,1.027688080E0
1.029675906E0,9.455915689E-1,3.084778599E-2,-3.506263196E-1,1.008976619E0
1.032078562E0,9.382613897E-1,-2.168507688E-2,-2.944283783E-1,9.836120922E-1
1.034480489E0,9.211576581E-1,-6.566607952E-2,-2.382304370E-1,9.537280567E-1
1.036883302E0,8.991671801E-1,-9.743013978E-2,-1.820324808E-1,9.225671108E-1
1.039286791E0,8.661814332E-1,-1.206423342E-1,-1.221694499E-1,8.830346667E-1
1.041689447E0,8.234221339E-1,-1.328592747E-1,-6.230641901E-2,8.363956524E-1
1.044091427E0,7.684458494E-1,-1.340809762E-1,-3.665083554E-3,7.800642054E-1
1.046494135E0,7.085828185E-1,-1.230857223E-1,5.497625470E-2,7.212919619E-1
1.048897729E0,6.401679516E-1,-1.035386100E-1,1.123958975E-1,6.581550636E-1
1.051300385E0,5.607577562E-1,-7.666133344E-2,1.685938388E-1,5.905506784E-1
1.053702312E0,4.776825607E-1,-4.489727318E-2,2.199050188E-1,5.277827311E-1
1.056105125E0,3.860554695E-1,-9.468132630E-3,2.687727809E-1,4.704968425E-1
1.058508614E0,2.895416021E-1,2.718270384E-2,3.127537966E-1,4.270692872E-1
1.060911270E0,1.856975704E-1,7.116370648E-2,3.567348123E-1,4.084208455E-1
1.063313250E0,8.063183725E-2,1.175880954E-1,3.946073353E-1,4.195752643E-1
1.065715958E0,-2.932066843E-2,1.725643575E-1,4.275930822E-1,4.620324697E-1
1.068119500E0,-1.404948682E-1,2.360924631E-1,4.556920528E-1,5.321030973E-1
1.070522208E0,-2.516690791E-1,3.045073450E-1,4.813476503E-1,6.227018620E-1
1.072924135E0,-3.628432751E-1,3.814741075E-1,5.008947253E-1,7.266864956E-1
1.075326843E0,-4.715740979E-1,4.608842432E-1,5.167768002E-1,8.377676746E-1
1.077730437E0,-5.741963983E-1,5.390726924E-1,5.277720094E-1,9.480739240E-1
1.080133093E0,-6.707102656E-1,6.148177385E-1,5.326588154E-1,1.054314244E0
1.082535072E0,-7.598940134E-1,6.978929639E-1,5.424323678E-1,1.165644189E0
1.084937781E0,-8.344173431E-1,7.785248160E-1,5.522059202E-1,1.267787273E0
1.087341322E0,-9.101623893E-1,8.273926377E-1,5.485408306E-1,1.346800354E0
1.089744031E0,-9.871291518E-1,8.432746530E-1,5.314370990E-1,1.402840509E0
1.092145958E0,-1.051878929E0,8.701519370E-1,5.118899941E-1,1.457959204E0
1.094548666E0,-1.097081661E0,9.312366247E-1,4.862344265E-1,1.518951527E0
1.096952260E0,-1.125180602E0,1.020420313E0,4.569137394E-1,1.586209055E0
1.099354916E0,-1.145949483E0,1.116934180E0,4.190412164E-1,1.654187934E0
1.101756843E0,-1.156944752E0,1.209782958E0,3.750602305E-1,1.715449253E0
1.104159656E0,-1.150836229E0,1.295301557E0,3.261924386E-1,1.763131208E0
1.106563145E0,-1.134954214E0,1.369825006E0,2.687727809E-1,1.799105450E0
1.108965854E0,-1.109298587E0,1.440683246E0,2.101314515E-1,1.830373403E0
1.111367781E0,-1.075091124E0,1.501767993E0,1.441599578E-1,1.852541530E0
1.113770489E0,-1.032331824E0,1.556744218E0,7.696675509E-2,1.869514760E0
1.116174083E0,-9.712471366E-1,1.601946950E0,4.886778072E-3,1.873387016E0
1.118576739E0,-9.016105533E-1,1.636154413E0,-6.963659078E-2,1.869425609E0
1.120978666E0,-8.209787011E-1,1.655701518E0,-1.453816444E-1,1.853777054E0
1.123381479E0,-7.317950130E-1,1.667918444E0,-2.223484069E-1,1.834915445E0
1.125784968E0,-6.377245188E-1,1.667918444E0,-2.980934680E-1,1.810387862E0
1.128187625E0,-5.338805318E-1,1.656923175E0,-3.726168275E-1,1.780243278E0
1.130589604E0,-4.300364852E-1,1.638597727E0,-4.434750974E-1,1.751172193E0
1.132992312E0,-3.176405728E-1,1.612942219E0,-5.118899941E-1,1.721775102E0
1.135395906E0,-2.064663768E-1,1.583621502E0,-5.766398311E-1,1.697939610E0
1.137798562E0,-8.918370306E-2,1.555522561E0,-6.365028620E-1,1.683074587E0
1.140200489E0,2.809897438E-2,1.526201844E0,-6.963658929E-1,1.677798283E0
1.142603197E0,1.453816444E-1,1.496881247E0,-7.501204610E-1,1.680615957E0
1.145006791E0,2.651077211E-1,1.468782187E0,-8.026533127E-1,1.694654996E0
1.147409447E0,3.811686933E-1,1.437018156E0,-8.527427912E-1,1.713908113E0
1.149811427E0,5.008947253E-1,1.407697558E0,-9.016105533E-1,1.745110177E0
1.152214135E0,6.181774139E-1,1.377155185E0,-9.492566586E-1,1.783195985E0
1.154617677E0,7.293516397E-1,1.346612811E0,-9.932376146E-1,1.825333075E0
1.157020385E0,8.393041492E-1,1.316070437E0,-1.037218690E0,1.874111913E0
1.159422312E0,9.455915689E-1,1.286749721E0,-1.076312900E0,1.925699280E0
1.161825020E0,1.048213840E0,1.258650780E0,-1.115407109E0,1.981687932E0
1.164228614E0,1.145949483E0,1.234216928E0,-1.153279662E0,2.041211803E0
1.166631270E0,1.236354828E0,1.212226391E0,-1.188708782E0,2.100260615E0
1.169033250E0,1.318208337E0,1.192679286E0,-1.219251156E0,2.155627630E0
1.171435958E0,1.395175099E0,1.175575495E0,-1.247350097E0,2.210061892E0
1.173839500E0,1.461146593E0,1.162136912E0,-1.273005724E0,2.259658192E0
1.176242208E0,1.521009684E0,1.152363300E0,-1.297439575E0,2.307544384E0
1.178644135E0,1.574764252E0,1.143811464E0,-1.316986680E0,2.350030006E0
1.181046843E0,1.617523551E0,1.136481285E0,-1.334090471E0,2.384904513E0
1.183450437E0,1.652952671E0,1.130372882E0,-1.346307397E0,2.412993782E0
1.185853093E0,1.678608298E0,1.129151106E0,-1.354859233E0,2.434820646E0
1.188255020E0,1.692046881E0,1.130372882E0,-1.360967636E0,2.448060131E0
1.190657833E0,1.701820493E0,1.130372882E0,-1.363411069E0,2.456181098E0
1.193061322E0,1.700598717E0,1.135259628E0,-1.364632726E0,2.458266238E0
1.195463979E0,1.690825224E0,1.140146375E0,-1.363411069E0,2.453102818E0
1.197865958E0,1.672499776E0,1.146254897E0,-1.356080890E0,2.439284971E0
1.200268666E0,1.644400835E0,1.156028390E0,-1.349972486E0,2.421338774E0
1.202672260E0,1.613858461E0,1.163358569E0,-1.342642307E0,2.400131384E0
1.205074916E0,1.573542595E0,1.165802002E0,-1.332868695E0,2.368896276E0
1.207476843E0,1.530783176E0,1.165802002E0,-1.323095202E0,2.335160028E0
1.209879656E0,1.480693698E0,1.159693480E0,-1.316986680E0,2.296039353E0
1.212283145E0,1.431825995E0,1.152363300E0,-1.307213187E0,2.255409757E0
1.214685802E0,1.376849771E0,1.140146375E0,-1.299883008E0,2.210281629E0
1.217087781E0,1.321873426E0,1.127929449E0,-1.292552829E0,2.165702429E0
1.219490489E0,1.266897202E0,1.110825777E0,-1.288887739E0,2.121366076E0
1.221894083E0,1.211920977E0,1.092500329E0,-1.284000993E0,2.076287064E0
1.224296739E0,1.161831498E0,1.069288135E0,-1.280335903E0,2.032852570E0
1.226698666E0,1.111742020E0,1.042410851E0,-1.280335903E0,1.990439832E0
1.229101479E0,1.065317631E0,1.011868477E0,-1.280335903E0,1.948855945E0
1.231504968E0,1.025001645E0,9.788827300E-1,-1.282779217E0,1.911638640E0
1.233907625E0,9.871291518E-1,9.446752667E-1,-1.286444306E0,1.876639090E0
1.236309604E0,9.529217482E-1,9.055810571E-1,-1.291331053E0,1.842735140E0
1.238712312E0,9.248227477E-1,8.628217578E-1,-1.298661232E0,1.812809834E0
1.241115854E0,9.003888369E-1,8.200624585E-1,-1.305991411E0,1.785725639E0
1.243518562E0,8.832851648E-1,7.760814428E-1,-1.310878277E0,1.760936383E0
1.245920489E0,8.649597168E-1,7.296570539E-1,-1.319430113E0,1.738232019E0
1.248323302E0,8.515210748E-1,6.844543815E-1,-1.326760292E0,1.718679381E0
1.250726791E0,8.393041492E-1,6.404733658E-1,-1.331647038E0,1.699388544E0
1.253129447E0,8.295305967E-1,6.013791561E-1,-1.338977218E0,1.686012423E0
1.255531375E0,8.258655071E-1,5.610632300E-1,-1.341420531E0,1.672200594E0
1.257934187E0,8.185353279E-1,5.231906772E-1,-1.343863964E0,1.658221614E0
1.260337677E0,8.124268651E-1,4.914266169E-1,-1.342642307E0,1.644453069E0
1.262740385E0,8.087617755E-1,4.596625566E-1,-1.337755442E0,1.629409371E0
1.265142312E0,8.002098799E-1,4.291202128E-1,-1.330425382E0,1.610748803E0
1.267545020E0,7.916580439E-1,3.997995257E-1,-1.319430113E0,1.589798082E0
1.269948614E0,7.794411182E-1,3.704788685E-1,-1.301104665E0,1.561299586E0
1.272351270E0,7.635591030E-1,3.387148082E-1,-1.276670814E0,1.525660051E0
1.274753197E0,7.403468490E-1,3.106158376E-1,-1.246128440E0,1.482373686E0
1.277156010E0,7.134696245E-1,2.776300907E-1,-1.210699320E0,1.432449027E0
1.279559500E0,6.829272509E-1,2.409792393E-1,-1.169161677E0,1.375281663E0
1.281962156E0,6.462764144E-1,2.018850148E-1,-1.122737288E0,1.311094879E0
1.284364135E0,6.096255779E-1,1.603474021E-1,-1.072647810E0,1.244157530E0
1.286766843E0,5.693096519E-1,1.188097894E-1,-1.021336675E0,1.175311809E0
1.289170437E0,5.289937258E-1,7.605048269E-2,-9.688037634E-1,1.106435163E0
1.291573093E0,4.850127101E-1,3.817795217E-2,-9.138274789E-1,1.035265930E0
1.293975020E0,4.410317242E-1,2.748812549E-3,-8.588512540E-1,9.654750200E-1
1.296377833E0,3.970507085E-1,-3.023693897E-2,-8.038749695E-1,8.970944790E-1
1.298781322E0,3.506263196E-1,-6.200099736E-2,-7.525638342E-1,8.325474546E-1
1.301183979E0,3.066453338E-1,-8.765657991E-2,-7.000309825E-1,7.692583527E-1
1.303585958E0,2.614426315E-1,-1.072036922E-1,-6.523848772E-1,7.109507080E-1
1.305988666E0,2.174616307E-1,-1.230857223E-1,-6.022953987E-1,6.520731578E-1
1.308392260E0,1.710372269E-1,-1.377460510E-1,-5.583143830E-1,5.999522130E-1
1.310794916E0,1.282779276E-1,-1.487413049E-1,-5.143333673E-1,5.505615454E-1
1.313196843E0,8.551861346E-2,-1.585148573E-1,-4.740174711E-1,5.070827902E-1
1.315599656E0,4.275930673E-2,-1.646233350E-1,-4.373666346E-1,4.692747317E-1
1.318003145E0,3.665083554E-3,-1.658450365E-1,-3.994941115E-1,4.325662425E-1
1.320405802E0,-3.665083647E-2,-1.695101112E-1,-3.652866483E-1,4.043653015E-1
1.322807781E0,-7.452336699E-2,-1.682884246E-1,-3.347443044E-1,3.820058578E-1
1.325210489E0,-1.111742035E-1,-1.670667231E-1,-3.066453338E-1,3.664728560E-1
1.327614031E0,-1.417165697E-1,-1.597365588E-1,-2.822114229E-1,3.538963712E-1
1.330016739E0,-1.710372269E-1,-1.487413049E-1,-2.577775419E-1,3.432593332E-1
1.332418666E0,-1.942494214E-1,-1.353026628E-1,-2.382304370E-1,3.358472709E-1
1.334821375E0,-2.162399292E-1,-1.157555580E-1,-2.199050188E-1,3.294196009E-1
1.337224968E0,-2.333436459E-1,-9.254335612E-2,-2.015796006E-1,3.219438852E-1
1.339627625E0,-2.467822880E-1,-6.566607952E-2,-1.844758689E-1,3.150315506E-1
1.342029552E0,-2.577775419E-1,-3.878879920E-2,-1.710372269E-1,3.117812775E-1
1.344432364E0,-2.638860047E-1,-5.803049076E-3,-1.563768983E-1,3.067950996E-1
1.346835854E0,-2.675510943E-1,2.473931387E-2,-1.417165697E-1,3.037749296E-1
1.349238562E0,-2.675510943E-1,6.016845629E-2,-1.307213157E-1,3.037958090E-1
1.351640489E0,-2.687727809E-1,9.681928903E-2,-1.185043678E-1,3.092831513E-1
1.354043197E0,-2.614426315E-1,1.310267299E-1,-1.050657257E-1,3.107395376E-1
1.356446791E0,-2.541124523E-1,1.664558798E-1,-9.407047927E-2,3.180093605E-1
1.358849447E0,-2.406738251E-1,2.043284029E-1,-8.307522535E-2,3.264590011E-1
1.361251375E0,-2.260134816E-1,2.409792393E-1,-7.452336699E-2,3.386839528E-1
1.363654187E0,-2.076880634E-1,2.788517773E-1,-6.597150117E-2,3.538995399E-1
1.366057677E0,-1.844758689E-1,3.167243004E-1,-5.864133686E-2,3.711932584E-1
1.368460333E0,-1.624853760E-1,3.545968235E-1,-5.497625470E-2,3.939070870E-1
1.370862312E0,-1.294996142E-1,3.936910629E-1,-5.131116882E-2,4.176070392E-1
1.373265020E0,-1.001789495E-1,4.303418994E-1,-4.886778072E-2,4.445424977E-1
1.375668562E0,-6.230641901E-2,4.669927359E-1,-5.008947477E-2,4.737860917E-1
1.378071270E0,-2.076880634E-2,5.012001991E-1,-5.253286287E-2,5.043735566E-1
1.380473197E0,2.443389036E-2,5.317425132E-1,-5.741964281E-2,5.353915676E-1
1.382875906E0,7.207997888E-2,5.622848868E-1,-6.108472496E-2,5.701676604E-1
1.385279500E0,1.258345395E-1,5.903838873E-1,-6.841489673E-2,6.075097232E-1
1.387682156E0,1.832541823E-1,6.172611713E-1,-7.941014320E-2,6.487676162E-1
1.390084135E0,2.480039895E-1,6.380299330E-1,-8.918370306E-2,6.903201482E-1
1.392486843E0,3.151971996E-1,6.600204706E-1,-1.001789495E-1,7.382493604E-1
1.394890385E0,3.860554695E-1,6.746807694E-1,-1.111742035E-1,7.852341496E-1
1.397293093E0,4.593571424E-1,6.832326651E-1,-1.246128380E-1,8.326729360E-1
1.399695020E0,5.363239050E-1,6.881194115E-1,-1.368297935E-1,8.831047774E-1
1.402097729E0,6.059604883E-1,6.881194115E-1,-1.466033459E-1,9.285413178E-1
1.404501322E0,6.804838181E-1,6.832326651E-1,-1.551551968E-1,9.766976177E-1
1.406903979E0,7.513421178E-1,6.734591126E-1,-1.588202864E-1,1.021413745E0
1.409305906E0,8.160919547E-1,6.563553810E-1,-1.612636745E-1,1.059629387E0
1.411708718E0,8.771766424E-1,6.306998134E-1,-1.600419879E-1,1.092169655E0
1.414112208E0,9.272661209E-1,6.013791561E-1,-1.563768983E-1,1.116213726E0
1.416514916E0,9.700254202E-1,5.683933496E-1,-1.466033459E-1,1.133804594E0
1.418916843E0,1.004232883E0,5.317425132E-1,-1.380514801E-1,1.144679866E0
1.421319552E0,1.031110168E0,4.926483035E-1,-1.270562261E-1,1.149797292E0
1.423723145E0,1.050657272E0,4.547757804E-1,-1.136175916E-1,1.150482799E0
1.426125802E0,1.060430884E0,4.156815708E-1,-1.001789495E-1,1.143389982E0
1.428527729E0,1.064095974E0,3.778090179E-1,-8.796200156E-2,1.132597550E0
1.430930541E0,1.064095974E0,3.448232710E-1,-7.818844914E-2,1.121301371E0
1.433334031E0,1.059209108E0,3.118375242E-1,-6.963659078E-2,1.106352490E0
1.435736687E0,1.050657272E0,2.837385535E-1,-6.597150117E-2,1.090293772E0
1.438138666E0,1.043327093E0,2.605263591E-1,-6.352811307E-2,1.077237777E0
1.440541375E0,1.034775257E0,2.360924631E-1,-6.597150117E-2,1.063415123E0
1.442944916E0,1.026223421E0,2.128802687E-1,-7.085828483E-2,1.050463429E0
1.445347625E0,1.021336675E0,1.896680743E-1,-8.185353130E-2,1.042018513E0
1.447749552E0,1.015228152E0,1.688992679E-1,-9.407047927E-2,1.033472021E0
1.450152260E0,1.012784719E0,1.469087601E-1,-1.099525094E-1,1.029273834E0
1.452555854E0,1.015228152E0,1.249182671E-1,-1.258345395E-1,1.030595510E0
1.454958510E0,1.017671585E0,1.041494608E-1,-1.441599578E-1,1.033094700E0
1.457360489E0,1.022558331E0,8.582404256E-2,-1.624853760E-1,1.038938307E0
1.459763197E0,1.031110168E0,6.627693027E-2,-1.783674061E-1,1.048520739E0
1.462166739E0,1.043327093E0,4.795150831E-2,-1.942494214E-1,1.062338745E0
1.464569447E0,1.053100705E0,2.962609194E-2,-2.089097649E-1,1.074030768E0
1.466971375E0,1.064095974E0,1.130067464E-2,-2.211267054E-1,1.086887743E0
1.469374083E0,1.079977989E0,-9.468132630E-3,-2.309002578E-1,1.104426110E0
1.471777677E0,1.093416572E0,-3.023693897E-2,-2.370087355E-1,1.119217232E0
1.474180333E0,1.105633497E0,-4.856235534E-2,-2.406738251E-1,1.132566829E0
1.476582260E0,1.117850542E0,-6.688777357E-2,-2.443388999E-1,1.146196016E0
1.478985072E0,1.130067468E0,-7.910472155E-2,-2.443388999E-1,1.158883746E0
1.481388562E0,1.145949483E0,-9.132166207E-2,-2.431172132E-1,1.175008869E0
1.483791218E0,1.160609841E0,-9.743013978E-2,-2.394521236E-1,1.189052209E0
1.486193197E0,1.172826767E0,-1.035386100E-1,-2.370087355E-1,1.201006249E0
1.488595906E0,1.186265349E0,-1.035386100E-1,-2.333436459E-1,1.213422836E0
1.490999500E0,1.200925708E0,-1.023169160E-1,-2.284568697E-1,1.226737074E0
1.493402156E0,1.214364409E0,-9.743013978E-2,-2.247917950E-1,1.238832072E0
1.495804083E0,1.221694469E0,-9.009996802E-2,-2.211267054E-1,1.244810187E0
1.498206895E0,1.231468081E0,-7.910472155E-2,-2.186833173E-1,1.253233253E0
1.500610385E0,1.242463350E0,-6.566607952E-2,-2.150182426E-1,1.262640113E0
1.503013041E0,1.246128440E0,-4.978405312E-2,-2.137965411E-1,1.265315574E0
1.505415020E0,1.251015186E0,-2.779355086E-2,-2.125748396E-1,1.269251567E0
1.507817729E0,1.255901933E0,-7.024743594E-3,-2.101314515E-1,1.273379063E0
1.510221270E0,1.254680276E0,1.740914769E-2,-2.089097649E-1,1.272072704E0
1.512623979E0,1.249793530E0,4.062134400E-2,-2.076880634E-1,1.267583643E0
1.515025906E0,1.246128440E0,6.627693027E-2,-2.052446753E-1,1.264655723E0
1.517428614E0,1.236354828E0,8.948912472E-2,-2.003578991E-1,1.255677049E0
1.519832208E0,1.222916245E0,1.139230132E-1,-1.954711229E-1,1.243668588E0
1.522234864E0,1.205812454E0,1.359135211E-1,-1.893626451E-1,1.228134509E0
1.524636791E0,1.183822036E0,1.542389393E-1,-1.808107942E-1,1.207442258E0
1.527039604E0,1.156944752E0,1.688992679E-1,-1.685938388E-1,1.181300979E0
1.529443093E0,1.123958945E0,1.811162084E-1,-1.539335102E-1,1.148817791E0
1.531845802E0,1.086086392E0,1.872246861E-1,-1.368297935E-1,1.110567030E0
1.534247729E0,1.039662004E0,1.896680743E-1,-1.185043678E-1,1.063444566E0
1.536650437E0,9.883508682E-1,1.896680743E-1,-9.895725548E-2,1.011238822E0
1.539054031E0,9.321529269E-1,1.835595965E-1,-7.696675509E-2,9.531668721E-1
1.541456687E0,8.649597168E-1,1.774511337E-1,-5.375456065E-2,8.846093880E-1
1.543858614E0,7.941014171E-1,1.676775664E-1,-3.054236248E-2,8.121857317E-1
1.546261427E0,7.134696245E-1,1.591257155E-1,-8.551862091E-3,7.310492684E-1
1.548664916E0,6.279509664E-1,1.469087601E-1,1.343864016E-2,6.450466626E-1
1.551067572E0,5.375455618E-1,1.322484314E-1,3.176405653E-2,5.544851972E-1
1.553469552E0,4.459185004E-1,1.212531775E-1,4.764608666E-2,4.645597826E-1
1.555872260E0,3.506263196E-1,1.102579311E-1,5.864133686E-2,3.722021410E-1
1.558275802E0,2.504473627E-1,1.029277667E-1,6.474980712E-2,2.784071554E-1
1.560678510E0,1.563768983E-1,9.926267713E-2,6.597150117E-2,1.966190539E-1
1.563080437E0,5.741964281E-2,1.017060652E-1,6.230641901E-2,1.323753336E-1
1.565483250E0,-3.665083647E-2,1.139230132E-1,5.619794875E-2,1.322117476E-1
1.567886739E0,-1.294996142E-1,1.261399537E-1,4.642439261E-2,1.866458203E-1
1.570289395E0,-2.223484069E-1,1.456870735E-1,3.298575059E-2,2.678648860E-1
1.572691375E0,-3.054236174E-1,1.713426560E-1,1.710372418E-2,3.506200639E-1
1.575094083E0,-3.848337829E-1,1.945548505E-1,0.000000000E0,4.312176136E-1
1.577497625E0,-4.605788291E-1,2.202104330E-1,-1.954711229E-2,5.108890116E-1
1.579900333E0,-5.265503526E-1,2.422009408E-1,-3.787253052E-2,5.808191613E-1
1.582302260E0,-5.900784731E-1,2.629697323E-1,-5.986303091E-2,6.487906187E-1
1.584704968E0,-6.438329816E-1,2.776300907E-1,-7.941014320E-2,7.056240828E-1
1.587108562E0,-6.878139973E-1,2.861819267E-1,-9.651386738E-2,7.512011160E-1
1.589511218E0,-7.293516397E-1,2.910687327E-1,-1.136175916E-1,7.934631552E-1
1.591913145E0,-7.598940134E-1,2.886253297E-1,-1.270562261E-1,8.227312910E-1
1.594315958E0,-7.843278646E-1,2.788517773E-1,-1.392731816E-1,8.439937986E-1
1.596719447E0,-8.026533127E-1,2.617480457E-1,-1.490467340E-1,8.573093425E-1
1.599122104E0,-8.087617755E-1,2.422009408E-1,-1.539335102E-1,8.581680668E-1
1.601524083E0,-8.124268651E-1,2.165453583E-1,-1.575985998E-1,8.554335871E-1
1.603926791E0,-8.063184023E-1,1.896680743E-1,-1.588202864E-1,8.434140310E-1
1.606330385E0,-7.953231335E-1,1.603474021E-1,-1.563768983E-1,8.262589850E-1
1.608733041E0,-7.769976854E-1,1.310267299E-1,-1.514901221E-1,8.023980709E-1
1.611134968E0,-7.513421178E-1,9.926267713E-2,-1.453816444E-1,7.716889785E-1
1.613537781E0,-7.269082665E-1,6.261184067E-2,-1.343863904E-1,7.418730164E-1
1.615941270E0,-6.951441765E-1,2.596100792E-2,-1.258345395E-1,7.069184758E-1
1.618343927E0,-6.621584296E-1,-1.313321572E-2,-1.136175916E-1,6.719637076E-1
1.620745906E0,-6.267293096E-1,-5.344913527E-2,-1.014006436E-1,6.371252059E-1
1.623148614E0,-5.888567567E-1,-9.620844573E-2,-8.796200156E-2,6.031133050E-1
1.625552156E0,-5.509842038E-1,-1.377460510E-1,-7.452336699E-2,5.728100031E-1
1.627954864E0,-5.118899941E-1,-1.768402755E-1,-5.986303091E-2,5.448737759E-1
1.630356791E0,-4.764608741E-1,-2.147128135E-1,-4.520269856E-2,5.245568041E-1
1.632759500E0,-4.410317242E-1,-2.501419485E-1,-2.932066843E-2,5.078776208E-1
1.635163093E0,-4.117110670E-1,-2.794626355E-1,-1.221694518E-2,4.977495566E-1
1.637565750E0,-3.811686933E-1,-3.002314270E-1,6.108472589E-3,4.852481797E-1
1.639967677E0,-3.542914093E-1,-3.112266660E-1,2.565558441E-2,4.722739134E-1
1.642370489E0,-3.310792148E-1,-3.173351586E-1,4.764608666E-2,4.610696248E-1
1.644773979E0,-3.090887070E-1,-3.148917556E-1,6.719319522E-2,4.463267547E-1
1.647176635E0,-2.907632887E-1,-3.075616062E-1,8.796200156E-2,4.322901171E-1
1.649578614E0,-2.712161839E-1,-2.977880239E-1,1.111742035E-1,4.178464181E-1
1.651981322E0,-2.553341687E-1,-2.831276953E-1,1.368297935E-1,4.050669351E-1
1.654384916E0,-2.406738251E-1,-2.684673667E-1,1.624853760E-1,3.954745434E-1
1.656787572E0,-2.284568697E-1,-2.513636351E-1,1.881409585E-1,3.882952982E-1
1.659189500E0,-2.199050188E-1,-2.367033064E-1,2.150182426E-1,3.880973038E-1
1.661592312E0,-2.076880634E-1,-2.244863659E-1,2.406738251E-1,3.891687941E-1
1.663995802E0,-1.991362125E-1,-2.147128135E-1,2.675510943E-1,3.966615830E-1
1.666398458E0,-1.881409585E-1,-2.049392611E-1,2.956500649E-1,4.059631534E-1
1.668800437E0,-1.795890927E-1,-2.012741715E-1,3.164188862E-1,4.157937540E-1
1.671203145E0,-1.698155403E-1,-1.976090819E-1,3.396310806E-1,4.280606708E-1
1.673606687E0,-1.624853760E-1,-1.963873953E-1,3.603998721E-1,4.414267484E-1
1.676009395E0,-1.514901221E-1,-1.988307834E-1,3.799470067E-1,4.547995882E-1
1.678411322E0,-1.429382563E-1,-2.012741715E-1,3.970507085E-1,4.675381293E-1
1.680814031E0,-1.356080920E-1,-2.049392611E-1,4.104893506E-1,4.784257124E-1
1.683217625E0,-1.331647038E-1,-2.110477239E-1,4.227063060E-1,4.908712675E-1
1.685620281E0,-1.294996142E-1,-2.171562016E-1,4.312581718E-1,4.999105687E-1
1.688022208E0,-1.307213157E-1,-2.220429778E-1,4.385883212E-1,5.086755959E-1
1.690425020E0,-1.307213157E-1,-2.293731421E-1,4.422534108E-1,5.150613362E-1
1.692828510E0,-1.343863904E-1,-2.379250079E-1,4.446968138E-1,5.219418239E-1
1.695231218E0,-1.417165697E-1,-2.440334857E-1,4.434750974E-1,5.256482572E-1
1.697633145E0,-1.514901221E-1,-2.538070381E-1,4.385883212E-1,5.288922245E-1
1.700035854E0,-1.624853760E-1,-2.623589039E-1,4.337015450E-1,5.322881945E-1
1.702439447E0,-1.832541823E-1,-2.684673667E-1,4.263713956E-1,5.361430679E-1
1.704842104E0,-2.040229887E-1,-2.709107697E-1,4.202629030E-1,5.400360476E-1
1.707244031E0,-2.247917950E-1,-2.599155009E-1,4.239279926E-1,5.457127098E-1
1.709646843E0,-2.418955117E-1,-2.464768738E-1,4.288147688E-1,5.505873172E-1
1.712050333E0,-2.638860047E-1,-2.391466945E-1,4.288147688E-1,5.574128371E-1
1.714452989E0,-2.846548259E-1,-2.464768738E-1,4.202629030E-1,5.642695516E-1
1.716854968E0,-3.090887070E-1,-2.770192325E-1,4.056025743E-1,5.803351896E-1
1.719257677E0,-3.323009014E-1,-3.283303976E-1,3.848337829E-1,6.052452227E-1
1.721661218E0,-3.567348123E-1,-3.833066523E-1,3.616215885E-1,6.363598740E-1
1.724063927E0,-3.836120665E-1,-4.162923992E-1,3.408527672E-1,6.607860381E-1
1.726465854E0,-4.117110670E-1,-4.162923992E-1,3.249707520E-1,6.696352395E-1
1.728868666E0,-4.422534108E-1,-3.967452943E-1,3.151971996E-1,6.725653742E-1
1.731272156E0,-4.703523815E-1,-3.662029207E-1,3.029802442E-1,6.686800208E-1
1.733674812E0,-5.008947253E-1,-3.356605768E-1,2.883199155E-1,6.683501495E-1
1.736076791E0,-5.228852630E-1,-3.124483824E-1,2.687727809E-1,6.657866007E-1
1.738479500E0,-5.436540842E-1,-3.002314270E-1,2.443388999E-1,6.673830766E-1
1.740883041E0,-5.595360994E-1,-3.014531136E-1,2.150182426E-1,6.709601113E-1
1.743285750E0,-5.766398311E-1,-3.185568452E-1,1.844758689E-1,6.841222878E-1
1.745687677E0,-5.864133835E-1,-3.503209054E-1,1.539335102E-1,7.002149089E-1
1.748090385E0,-5.974085927E-1,-3.930802047E-1,1.233911440E-1,7.256958374E-1
1.750493979E0,-6.145123243E-1,-4.321744442E-1,9.651386738E-2,7.574398151E-1
1.752896635E0,-6.303943992E-1,-4.676035643E-1,7.452336699E-2,7.884186223E-1
1.755298562E0,-6.487197876E-1,-4.932591617E-1,5.619794875E-2,8.168844306E-1
1.757701375E0,-6.719319820E-1,-5.066977739E-1,4.275930673E-2,8.426527048E-1
1.760104864E0,-6.939224601E-1,-5.128062963E-1,3.054236248E-2,8.633837583E-1
1.762507520E0,-7.171346545E-1,-5.140279531E-1,2.321219631E-2,8.826356300E-1
1.764909500E0,-7.440119386E-1,-5.128062963E-1,1.588202827E-2,9.037567710E-1
1.767312208E0,-7.672241330E-1,-5.103628635E-1,1.221694518E-2,9.215489008E-1
1.769715750E0,-7.941014171E-1,-5.152496696E-1,9.773556143E-3,9.466650965E-1
1.772118458E0,-8.148702383E-1,-5.225798488E-1,6.108472589E-3,9.680601826E-1
1.774520385E0,-8.368607163E-1,-5.347967744E-1,3.665083554E-3,9.931550137E-1
1.776923093E0,-8.612946272E-1,-5.543438792E-1,1.221694518E-3,1.024269039E0
1.779326687E0,-8.759549856E-1,-5.775560737E-1,-1.221694518E-3,1.049223354E0
1.781729343E0,-8.918370008E-1,-5.995466113E-1,-2.443389036E-3,1.074632656E0
1.784131322E0,-9.077190161E-1,-6.215370893E-1,-6.108472589E-3,1.100136118E0
1.786534031E0,-9.211576581E-1,-6.435275674E-1,-8.551862091E-3,1.123713618E0
1.788937572E0,-9.309312105E-1,-6.642963886E-1,-1.221694518E-2,1.143709694E0
1.791340281E0,-9.419264793E-1,-6.850652099E-1,-1.588202827E-2,1.164814180E0
1.793742208E0,-9.492566586E-1,-7.033905983E-1,-1.710372418E-2,1.181583292E0
1.796144916E0,-9.590302110E-1,-7.217160463E-1,-1.954711229E-2,1.200414548E0
1.798548510E0,-9.675820470E-1,-7.412631512E-1,-2.199050039E-2,1.219085583E0
1.800951166E0,-9.749122262E-1,-7.595885396E-1,-2.199050039E-2,1.236087449E0
1.803353093E0,-9.822424054E-1,-7.779139876E-1,-2.443389036E-2,1.253214798E0
1.805755906E0,-9.883508682E-1,-7.962393761E-1,-2.809897438E-2,1.269497592E0
1.808159395E0,-9.932376146E-1,-8.145648241E-1,-3.176405653E-2,1.284930258E0
1.810562052E0,-9.981244206E-1,-8.316685557E-1,-3.420744836E-2,1.299651913E0
1.812964031E0,-9.993461370E-1,-8.426637650E-1,-3.542914242E-2,1.307681210E0
1.815366739E0,-9.981244206E-1,-8.499939442E-1,-3.542914242E-2,1.311486671E0
1.817770333E0,-9.981244206E-1,-8.536590338E-1,-3.420744836E-2,1.313832659E0
1.820172989E0,-9.920159578E-1,-8.512156606E-1,-3.542914242E-2,1.307638706E0
1.822574916E0,-9.871291518E-1,-8.463288546E-1,-3.298575059E-2,1.300686185E0
1.824977729E0,-9.797990322E-1,-8.402203918E-1,-3.176405653E-2,1.291117890E0
1.827381218E0,-9.700254202E-1,-8.316685557E-1,-2.809897438E-2,1.278049864E0
1.829783875E0,-9.590302110E-1,-8.206732869E-1,-2.565558441E-2,1.262498237E0
1.832185854E0,-9.443698525E-1,-8.060129285E-1,-2.321219631E-2,1.241785032E0
1.834588562E0,-9.284878373E-1,-7.925743461E-1,-1.710372418E-2,1.220883408E0
1.836992104E0,-9.101623893E-1,-7.791357040E-1,-1.343864016E-2,1.198177206E0
1.839394812E0,-8.893936276E-1,-7.693621516E-1,-6.108472589E-3,1.176000195E0
1.841796739E0,-8.710681796E-1,-7.608102560E-1,0.000000000E0,1.156543133E0
1.844199447E0,-8.527427912E-1,-7.571451664E-1,7.330167107E-3,1.140391513E0
1.846603041E0,-8.295305967E-1,-7.534800768E-1,1.588202827E-2,1.120761115E0
1.849005697E0,-8.112051487E-1,-7.498149872E-1,2.565558441E-2,1.104959057E0
1.851407625E0,-7.928797603E-1,-7.473716140E-1,3.542914242E-2,1.090173320E0
1.853810437E0,-7.721109390E-1,-7.461498976E-1,4.398100078E-2,1.074629843E0
1.856213927E0,-7.586722970E-1,-7.498149872E-1,5.619794875E-2,1.068159341E0
1.858616583E0,-7.415685654E-1,-7.571451664E-1,6.474980712E-2,1.061784007E0
1.861018562E0,-7.269082665E-1,-7.656970620E-1,7.452336699E-2,1.058414546E0
1.863421270E0,-7.146912813E-1,-7.803573608E-1,8.551861346E-2,1.061628311E0
1.865824812E0,-7.049177289E-1,-8.011261821E-1,9.651386738E-2,1.071460261E0
1.868227520E0,-7.000309825E-1,-8.218950033E-1,1.075091213E-1,1.084948379E0
1.870629447E0,-6.988092661E-1,-8.389987350E-1,1.160609797E-1,1.098054379E0
1.873032260E0,-6.988092661E-1,-8.561024070E-1,1.270562261E-1,1.112379884E0
1.875435750E0,-7.012526393E-1,-8.719844818E-1,1.343863904E-1,1.127019034E0
1.877838406E0,-7.085828185E-1,-8.842014074E-1,1.392731816E-1,1.141621110E0
1.880240385E0,-7.122479081E-1,-8.903098702E-1,1.429382563E-1,1.149077932E0
1.882643093E0,-7.244648337E-1,-8.964183331E-1,1.453816444E-1,1.161701746E0
1.885046635E0,-7.317950130E-1,-8.951966763E-1,1.441599578E-1,1.165196603E0
1.887449343E0,-7.427902818E-1,-8.915315866E-1,1.417165697E-1,1.169037877E0
1.889851270E0,-7.550072074E-1,-8.854231238E-1,1.392731816E-1,1.171924490E0
1.892253979E0,-7.672241330E-1,-8.719844818E-1,1.343863904E-1,1.169208924E0
1.894657572E0,-7.794411182E-1,-8.536590338E-1,1.282779276E-1,1.163063811E0
1.897060229E0,-7.928797603E-1,-8.341119289E-1,1.209477559E-1,1.157164372E0
1.899462156E0,-8.075400591E-1,-8.096780181E-1,1.148392856E-1,1.149298700E0
1.901864968E0,-8.185353279E-1,-7.864658237E-1,1.062874198E-1,1.140098939E0
1.904268458E0,-8.283088803E-1,-7.608102560E-1,9.651386738E-2,1.128823624E0
1.906671114E0,-8.368607163E-1,-7.351546884E-1,8.674030751E-2,1.117278907E0
1.909073093E0,-8.454126120E-1,-7.119424939E-1,7.574506104E-2,1.107845618E0
1.911475802E0,-8.466343284E-1,-6.887302995E-1,6.719319522E-2,1.093459664E0
1.913879343E0,-8.515210748E-1,-6.691831946E-1,5.741964281E-2,1.084523538E0
1.916282052E0,-8.576295376E-1,-6.533011198E-1,4.642439261E-2,1.079113526E0
1.918683979E0,-8.576295376E-1,-6.398624778E-1,3.665083647E-2,1.070651997E0
1.921086687E0,-8.588512540E-1,-6.264238358E-1,2.809897438E-2,1.063401077E0
1.923490281E0,-8.588512540E-1,-6.190937161E-1,1.832541823E-2,1.058885417E0
1.925892937E0,-8.588512540E-1,-6.166502833E-1,9.773556143E-3,1.057345058E0
1.928294916E0,-8.588512540E-1,-6.178719997E-1,1.221694518E-3,1.058013600E0
1.930697625E0,-8.588512540E-1,-6.227588058E-1,-6.108472589E-3,1.060891757E0
1.933101166E0,-8.588512540E-1,-6.313106418E-1,-1.343864016E-2,1.066001501E0
1.935503875E0,-8.588512540E-1,-6.410841942E-1,-2.076880634E-2,1.071935522E0
1.937905802E0,-8.588512540E-1,-6.594096422E-1,-2.809897438E-2,1.083160240E0
1.940308510E0,-8.612946272E-1,-6.789567471E-1,-3.542914242E-2,1.097299377E0
1.942712104E0,-8.637380004E-1,-7.046123147E-1,-4.398100078E-2,1.115551960E0
1.945114760E0,-8.674030900E-1,-7.351546884E-1,-5.008947477E-2,1.138134215E0
1.947516687E0,-8.747332692E-1,-7.656970620E-1,-5.741964281E-2,1.163936123E0
1.949919500E0,-8.832851648E-1,-7.999044657E-1,-6.230641901E-2,1.193281998E0
1.952322989E0,-8.918370008E-1,-8.341119289E-1,-6.841489673E-2,1.223027614E0
1.954725645E0,-9.016105533E-1,-8.670976758E-1,-7.330167294E-2,1.253049522E0
1.957127625E0,-9.174925685E-1,-8.976400495E-1,-7.941014320E-2,1.286023422E0
1.959530333E0,-9.309312105E-1,-9.269607067E-1,-8.307522535E-2,1.316355029E0
1.961933875E0,-9.407047629E-1,-9.489512444E-1,-9.040539712E-2,1.339256156E0
1.964336583E0,-9.517000318E-1,-9.660549164E-1,-9.529217333E-2,1.359439462E0
1.966738510E0,-9.626953006E-1,-9.782719016E-1,-1.001789495E-1,1.376166406E0
1.969141218E0,-9.761339426E-1,-9.831586480E-1,-1.062874198E-1,1.389509056E0
1.971544812E0,-9.810206890E-1,-9.831586480E-1,-1.123958975E-1,1.393425763E0
1.973947468E0,-9.871291518E-1,-9.794935584E-1,-1.185043678E-1,1.395662881E0
1.976349447E0,-9.920159578E-1,-9.709417224E-1,-1.258345395E-1,1.393792603E0
1.978752156E0,-9.920159578E-1,-9.611681700E-1,-1.331647038E-1,1.387686114E0
1.981155697E0,-9.932376146E-1,-9.489512444E-1,-1.380514801E-1,1.380611326E0
1.983558406E0,-9.956810474E-1,-9.379559755E-1,-1.429382563E-1,1.375344868E0
1.985960333E0,-9.956810474E-1,-9.257390499E-1,-1.453816444E-1,1.367300025E0
1.988363041E0,-9.956810474E-1,-9.135220647E-1,-1.478250325E-1,1.359321725E0
1.990766635E0,-9.956810474E-1,-9.025267959E-1,-1.466033459E-1,1.351823918E0
1.993169291E0,-9.956810474E-1,-8.939749599E-1,-1.441599578E-1,1.345865547E0
1.995571218E0,-9.981244206E-1,-8.842014074E-1,-1.429382563E-1,1.341080099E0
1.997974031E0,-9.969027042E-1,-8.768712282E-1,-1.392731816E-1,1.334958865E0
2.000377520E0,-9.932376146E-1,-8.707627654E-1,-1.356080920E-1,1.327832183E0
2.002780177E0,-9.907942414E-1,-8.670976758E-1,-1.294996142E-1,1.322989705E0
2.005182156E0,-9.895725846E-1,-8.646543026E-1,-1.246128380E-1,1.320003531E0
2.007584864E0,-9.846857786E-1,-8.646543026E-1,-1.185043678E-1,1.315779781E0
2.009988406E0,-9.834640622E-1,-8.646543026E-1,-1.099525094E-1,1.314122589E0
2.012391114E0,-9.761339426E-1,-8.634325862E-1,-1.062874198E-1,1.307535973E0
2.014793041E0,-9.736905098E-1,-8.646543026E-1,-1.026223376E-1,1.306228011E0
2.017195750E0,-9.651386738E-1,-8.622109294E-1,-9.895725548E-2,1.297957197E0
2.019599343E0,-9.602518678E-1,-8.561024070E-1,-9.529217333E-2,1.289990534E0
2.022002000E0,-9.541434050E-1,-8.487722874E-1,-9.162709117E-2,1.280312289E0
2.024403927E0,-9.468132257E-1,-8.341119289E-1,-8.918370306E-2,1.264971038E0
2.026806739E0,-9.358180165E-1,-8.157865405E-1,-8.918370306E-2,1.244675368E0
2.029210229E0,-9.272661209E-1,-7.950177193E-1,-8.796200156E-2,1.224586847E0
2.031612937E0,-9.138274789E-1,-7.693621516E-1,-9.040539712E-2,1.197986610E0
2.034014864E0,-9.016105533E-1,-7.363763452E-1,-9.162709117E-2,1.167710253E0
2.036417572E0,-8.869501948E-1,-6.985038519E-1,-9.284878522E-2,1.132788231E0
2.038821166E0,-8.686248064E-1,-6.545228362E-1,-9.407047927E-2,1.091676899E0
2.041223822E0,-8.478559852E-1,-6.044333577E-1,-9.529217333E-2,1.045600332E0
2.043625750E0,-8.234221339E-1,-5.531222224E-1,-9.651386738E-2,9.966359065E-1
2.046028562E0,-7.953231335E-1,-4.969242513E-1,-9.651386738E-2,9.427552836E-1
2.048432052E0,-7.696675658E-1,-4.370612204E-1,-9.895725548E-2,8.906195656E-1
2.050834708E0,-7.366818190E-1,-3.759764731E-1,-1.001789495E-1,8.331231798E-1
2.053236687E0,-7.012526393E-1,-3.161134422E-1,-1.026223376E-1,7.760246882E-1
2.055639395E0,-6.633801460E-1,-2.574721277E-1,-1.026223376E-1,7.189551160E-1
2.058042937E0,-6.230642200E-1,-2.000524700E-1,-1.050657257E-1,6.627735810E-1
2.060445645E0,-5.827482939E-1,-1.438545287E-1,-1.087308154E-1,6.100099095E-1
2.062847572E0,-5.363239050E-1,-9.009996802E-2,-1.087308154E-1,5.546023129E-1
2.065250281E0,-4.874561131E-1,-4.001049697E-2,-1.075091213E-1,5.007719174E-1
2.067653875E0,-4.337015450E-1,1.130067464E-2,-1.062874198E-1,4.466785768E-1
2.070056531E0,-3.823903799E-1,5.894676223E-2,-1.050657257E-1,4.009188573E-1
2.072458510E0,-3.286358118E-1,1.053711548E-1,-1.038440317E-1,3.604000000E-1
2.074861218E0,-2.773246467E-1,1.517955512E-1,-9.895725548E-2,3.312753952E-1
2.077264760E0,-2.199050188E-1,1.896680743E-1,-9.284878522E-2,3.048820962E-1
2.079667468E0,-1.661504507E-1,2.238755226E-1,-8.429691941E-2,2.912596651E-1
2.082069395E0,-1.148392856E-1,2.507528067E-1,-7.452336699E-2,2.856899785E-1
2.084472104E0,-6.719319522E-2,2.715215981E-1,-6.108472496E-2,2.863044662E-1
2.086875697E0,-1.343864016E-2,2.874036431E-1,-4.764608666E-2,2.916360758E-1
2.089278354E0,3.420744836E-2,3.020639718E-1,-3.176405653E-2,3.056497143E-1
2.091680281E0,7.452336699E-2,3.142809272E-1,-1.343864016E-2,3.232751622E-1
2.094083093E0,1.185043678E-1,3.240544796E-1,4.886778072E-3,3.450774863E-1
2.096486583E0,1.612636745E-1,3.313846290E-1,2.443389036E-2,3.693491032E-1
2.098889239E0,1.991362125E-1,3.411581814E-1,4.398100078E-2,3.974650479E-1
2.101291218E0,2.370087355E-1,3.460449576E-1,6.230641901E-2,4.240310640E-1
2.103693927E0,2.712161839E-1,3.497100472E-1,7.818844914E-2,4.494093559E-1
2.106097468E0,3.066453338E-1,3.509317636E-1,9.284878522E-2,4.751898151E-1
2.108500177E0,3.396310806E-1,3.533751369E-1,1.050657257E-1,5.012604762E-1
2.110902104E0,3.701734245E-1,3.570402265E-1,1.136175916E-1,5.267020454E-1
2.113304812E0,3.994941115E-1,3.607053161E-1,1.209477559E-1,5.516631489E-1
2.115708406E0,4.275930822E-1,3.692571819E-1,1.233911440E-1,5.782837407E-1
2.118111062E0,4.556920528E-1,3.814741075E-1,1.233911440E-1,6.069622032E-1
2.120512989E0,4.789042473E-1,3.973561525E-1,1.246128380E-1,6.346412762E-1
2.122915802E0,5.008947253E-1,4.193466306E-1,1.197260618E-1,6.641396331E-1
2.125319291E0,5.204418898E-1,4.450022280E-1,1.160609797E-1,6.945191823E-1
2.127721947E0,5.375455618E-1,4.743228853E-1,1.111742035E-1,7.254633926E-1
2.130123927E0,5.558710098E-1,5.073086619E-1,1.038440317E-1,7.596961504E-1
2.132526635E0,5.656445622E-1,5.439594984E-1,9.895725548E-2,7.909729737E-1
2.134930177E0,5.790832043E-1,5.781669021E-1,9.284878522E-2,8.235503755E-1
2.137332885E0,5.839699507E-1,6.148177385E-1,8.674030751E-2,8.523764637E-1
2.139734812E0,5.900784731E-1,6.490252018E-1,8.185353130E-2,8.809803162E-1
2.142137520E0,5.961869359E-1,6.844543815E-1,7.696675509E-2,9.109558410E-1
2.144541114E0,6.010736823E-1,7.162184119E-1,7.452336699E-2,9.379830048E-1
2.146943770E0,6.047387719E-1,7.418739796E-1,6.963659078E-2,9.596537076E-1
2.149345697E0,6.059604883E-1,7.650861740E-1,6.597150117E-2,9.782112277E-1
2.151748510E0,6.059604883E-1,7.809682488E-1,6.597150117E-2,9.906824709E-1
2.154152000E0,6.010736823E-1,7.944068313E-1,6.597150117E-2,9.983606683E-1
2.156554708E0,6.035171151E-1,8.041804433E-1,6.474980712E-2,1.007537409E0
2.158956635E0,5.998520255E-1,8.115105629E-1,6.474980712E-2,1.011219256E0
2.161359343E0,5.986303091E-1,8.176190853E-1,6.474980712E-2,1.015407186E0
2.163762937E0,5.998520255E-1,8.249492049E-1,6.597150117E-2,1.022113439E0
2.166165593E0,6.010736823E-1,8.347227573E-1,6.352811307E-2,1.030576283E0
2.168567520E0,6.010736823E-1,8.444963098E-1,5.986303091E-2,1.038290504E0
2.170970333E0,6.035171151E-1,8.518264890E-1,5.619794875E-2,1.045466157E0
2.173373822E0,6.108472347E-1,8.579349518E-1,5.131116882E-2,1.054428547E0
2.175776479E0,6.169557571E-1,8.628217578E-1,4.520269856E-2,1.061668063E0
2.178178458E0,6.255075932E-1,8.664868474E-1,3.909422457E-2,1.069386536E0
2.180581166E0,6.328377724E-1,8.713735938E-1,3.298575059E-2,1.077433824E0
2.182984708E0,6.413896084E-1,8.799254894E-1,2.687728032E-2,1.089206998E0
2.185387416E0,6.523848772E-1,8.909206986E-1,1.954711229E-2,1.104412880E0
2.187789343E0,6.621584296E-1,9.019159675E-1,1.343864016E-2,1.118966843E0
2.190192052E0,6.707102656E-1,9.129112363E-1,8.551862091E-3,1.132842584E0
2.192595645E0,6.792621613E-1,9.275715351E-1,0.000000000E0,1.149689539E0
2.194998302E0,6.865923405E-1,9.446752667E-1,-2.443389036E-3,1.167829770E0
2.197400229E0,6.963658929E-1,9.593356252E-1,-7.330167107E-3,1.185455199E0
2.199803041E0,7.061394453E-1,9.727742672E-1,-9.773556143E-3,1.202089104E0
2.202206531E0,7.122479081E-1,9.849911928E-1,-1.343864016E-2,1.215600810E0
2.204609239E0,7.207997441E-1,9.935430884E-1,-1.466033421E-2,1.227556543E0
2.207011166E0,7.317950130E-1,9.996515512E-1,-1.710372418E-2,1.238999476E0
2.209413875E0,7.354601026E-1,1.004538298E0,-1.832541823E-2,1.245124321E0
2.211817416E0,7.403468490E-1,1.006981730E0,-1.710372418E-2,1.249967279E0
2.214220125E0,7.452336550E-1,1.005759954E0,-1.710372418E-2,1.251886107E0
2.216622052E0,7.501204610E-1,1.002094984E0,-1.588202827E-2,1.251849552E0
2.219024864E0,7.525638342E-1,9.886562824E-1,-1.588202827E-2,1.242596398E0
2.221428354E0,7.550072074E-1,9.739959836E-1,-1.588202827E-2,1.232459451E0
2.223831010E0,7.525638342E-1,9.581139088E-1,-1.466033421E-2,1.218420909E0
2.226232989E0,7.562289238E-1,9.336800575E-1,-1.343864016E-2,1.201591125E0
2.228635697E0,7.562289238E-1,9.116895199E-1,-1.466033421E-2,1.184599042E0
2.231039239E0,7.550072074E-1,8.884773254E-1,-1.343864016E-2,1.166022486E0
2.233441947E0,7.550072074E-1,8.664868474E-1,-1.466033421E-2,1.149369508E0
2.235843875E0,7.550072074E-1,8.469397426E-1,-1.588202827E-2,1.134722455E0
2.238246583E0,7.525638342E-1,8.286142945E-1,-1.710372418E-2,1.119484931E0
2.240650177E0,7.525638342E-1,8.115105629E-1,-1.832541823E-2,1.106904485E0
2.243052833E0,7.513421178E-1,7.944068313E-1,-2.199050039E-2,1.093654778E0
2.245454760E0,7.476770282E-1,7.785248160E-1,-2.443389036E-2,1.079684603E0
2.247857572E0,7.464553714E-1,7.626428008E-1,-2.932066843E-2,1.067557663E0
2.250261062E0,7.427902818E-1,7.467607856E-1,-3.176405653E-2,1.053754254E0
2.252663718E0,7.403468490E-1,7.296570539E-1,-3.665083647E-2,1.040123145E0
2.255065697E0,7.379034758E-1,7.137750387E-1,-4.031591862E-2,1.027424800E0
2.257468406E0,7.317950130E-1,6.991146803E-1,-4.764608666E-2,1.013190716E0
2.259871947E0,7.293516397E-1,6.820109487E-1,-5.375456065E-2,9.999911506E-1
2.262274656E0,7.244648337E-1,6.636855602E-1,-5.864133686E-2,9.842594295E-1
2.264676583E0,7.207997441E-1,6.453601122E-1,-6.597150117E-2,9.697392353E-1
2.267079291E0,7.146912813E-1,6.245913506E-1,-7.085828483E-2,9.517977092E-1
2.269482885E0,7.098045349E-1,6.001574397E-1,-7.818844914E-2,9.328048369E-1
2.271885541E0,7.061394453E-1,5.769452453E-1,-8.551861346E-2,9.158668929E-1
2.274287468E0,6.975875497E-1,5.525113344E-1,-9.407047927E-2,8.948443547E-1
2.276690281E0,6.890357137E-1,5.329642296E-1,-1.026223376E-1,8.771273733E-1
2.279093770E0,6.817055345E-1,5.146388412E-1,-1.087308154E-1,8.610446926E-1
2.281496427E0,6.707102656E-1,4.938700199E-1,-1.148392856E-1,8.408019496E-1
2.283898406E0,6.609367132E-1,4.792096615E-1,-1.221694499E-1,8.254723575E-1
2.286301114E0,6.487197876E-1,4.682144225E-1,-1.282779276E-1,8.102575732E-1
2.288704656E0,6.340594292E-1,4.547757804E-1,-1.331647038E-1,7.915713540E-1
2.291107364E0,6.193991303E-1,4.462239146E-1,-1.417165697E-1,7.764371518E-1
2.293509291E0,6.035171151E-1,4.376720488E-1,-1.466033459E-1,7.597909394E-1
2.295912104E0,5.888567567E-1,4.266768098E-1,-1.539335102E-1,7.433040464E-1
2.298315593E0,5.705313683E-1,4.181249440E-1,-1.612636745E-1,7.254932692E-1
2.300718250E0,5.546492934E-1,4.095730782E-1,-1.685938388E-1,7.097956238E-1
2.303120229E0,5.351021886E-1,4.034646153E-1,-1.747023165E-1,6.925597068E-1
2.305522937E0,5.179984570E-1,3.973561525E-1,-1.832541823E-1,6.780828922E-1
2.307926479E0,4.996730685E-1,3.936910629E-1,-1.893626451E-1,6.637198504E-1
2.310329187E0,4.813476503E-1,3.900259733E-1,-1.954711229E-1,6.496343434E-1
2.312731114E0,4.618005157E-1,3.900259733E-1,-1.991362125E-1,6.364237639E-1
2.315133822E0,4.434750974E-1,3.888042867E-1,-2.040229887E-1,6.240707615E-1
2.317537416E0,4.251496792E-1,3.875826001E-1,-2.089097649E-1,6.120586667E-1
2.319940072E0,4.043808877E-1,3.839175105E-1,-2.125748396E-1,5.967450207E-1
2.322342000E0,3.872771561E-1,3.765873313E-1,-2.150182426E-1,5.814073085E-1
2.324744812E0,3.701734245E-1,3.717005551E-1,-2.174616307E-1,5.678725453E-1
2.327148302E0,3.542914093E-1,3.594835997E-1,-2.211267054E-1,5.510425400E-1
2.329550958E0,3.420744538E-1,3.484883606E-1,-2.223484069E-1,5.365611648E-1
2.331952937E0,3.286358118E-1,3.362714052E-1,-2.223484069E-1,5.201141883E-1
2.334355645E0,3.151971996E-1,3.216110766E-1,-2.235700935E-1,5.027589342E-1
2.336759187E0,3.042019308E-1,3.069507480E-1,-2.235700935E-1,4.865605441E-1
2.339161895E0,2.968717813E-1,2.959555089E-1,-2.247917950E-1,4.756615067E-1
2.341563822E0,2.883199155E-1,2.849602401E-1,-2.247917950E-1,4.635321599E-1
2.343966531E0,2.822114229E-1,2.690782249E-1,-2.260134816E-1,4.506977615E-1
2.346370125E0,2.761029601E-1,2.556395829E-1,-2.247917950E-1,4.383101550E-1
2.348772781E0,2.712161839E-1,2.434226274E-1,-2.247917950E-1,4.281870445E-1
2.351174708E0,2.651077211E-1,2.287622988E-1,-2.247917950E-1,4.161077315E-1
2.353577520E0,2.602209449E-1,2.153236568E-1,-2.223484069E-1,4.043736285E-1
2.355981010E0,2.565558553E-1,2.006633282E-1,-2.211267054E-1,3.936796896E-1
2.358383666E0,2.541124523E-1,1.835595965E-1,-2.186833173E-1,3.822167672E-1
2.360785645E0,2.455606014E-1,1.664558798E-1,-2.137965411E-1,3.656727086E-1
2.363188354E0,2.455606014E-1,1.530172378E-1,-2.113531530E-1,3.583077438E-1
2.365591895E0,2.431172132E-1,1.383569092E-1,-2.064663768E-1,3.476736666E-1
2.367994604E0,2.382304370E-1,1.273616552E-1,-2.003578991E-1,3.363302247E-1
2.370396531E0,2.345653474E-1,1.139230132E-1,-1.942494214E-1,3.251648703E-1
2.372799343E0,2.309002578E-1,9.926267713E-2,-1.893626451E-1,3.146843172E-1
2.375202833E0,2.296785712E-1,8.704573661E-2,-1.844758689E-1,3.071816280E-1
2.377605489E0,2.296785712E-1,7.605048269E-2,-1.795890927E-1,3.013107436E-1
2.380007468E0,2.284568697E-1,6.505523622E-2,-1.759240031E-1,2.955908997E-1
2.382410177E0,2.260134816E-1,5.405998230E-2,-1.734806150E-1,2.900001713E-1
2.384813718E0,2.272351831E-1,4.428642616E-2,-1.698155403E-1,2.871139734E-1
2.387216427E0,2.284568697E-1,3.817795217E-2,-1.649287641E-1,2.843441481E-1
2.389618354E0,2.284568697E-1,3.329117596E-2,-1.624853760E-1,2.823160306E-1
2.392021062E0,2.272351831E-1,3.084778599E-2,-1.600419879E-1,2.796441529E-1
2.394424656E0,2.284568697E-1,3.206948191E-2,-1.575985998E-1,2.793891760E-1
2.396827312E0,2.247917950E-1,3.329117596E-2,-1.539335102E-1,2.744725470E-1
2.399229239E0,2.235700935E-1,3.939964995E-2,-1.514901221E-1,2.729197249E-1
2.401632052E0,2.199050188E-1,4.428642616E-2,-1.466033459E-1,2.679776966E-1
2.404035541E0,2.186833173E-1,5.405998230E-2,-1.441599578E-1,2.674452624E-1
2.406438197E0,2.150182426E-1,6.261184067E-2,-1.417165697E-1,2.650220243E-1
2.408840177E0,2.089097649E-1,7.116370648E-2,-1.392731816E-1,2.609685462E-1
2.411242885E0,2.040229887E-1,7.971556485E-2,-1.356080920E-1,2.576227975E-1
2.413646427E0,1.991362125E-1,8.704573661E-2,-1.319430023E-1,2.542462335E-1
2.416049135E0,1.918060333E-1,9.437590092E-2,-1.282779276E-1,2.493022098E-1
2.418451062E0,1.820324808E-1,1.053711548E-1,-1.246128380E-1,2.444734418E-1
2.420853770E0,1.722589284E-1,1.139230132E-1,-1.209477559E-1,2.393323025E-1
2.423257364E0,1.624853760E-1,1.224748790E-1,-1.148392856E-1,2.336442914E-1
2.425660020E0,1.502684206E-1,1.285833418E-1,-1.087308154E-1,2.256915245E-1
2.428061947E0,1.368297935E-1,1.359135211E-1,-1.026223376E-1,2.184633190E-1
2.430464760E0,1.270562261E-1,1.420219839E-1,-9.773556143E-2,2.141629484E-1
2.432868250E0,1.148392856E-1,1.469087601E-1,-9.040539712E-2,2.072278484E-1
2.435270906E0,1.026223376E-1,1.517955512E-1,-8.429691941E-2,2.016908629E-1
2.437672885E0,9.162709117E-2,1.542389393E-1,-7.818844914E-2,1.957003010E-1
2.440075593E0,8.185353130E-2,1.530172378E-1,-7.207997888E-2,1.879090179E-1
2.442479135E0,7.207997888E-2,1.493521482E-1,-6.597150117E-2,1.784764032E-1
2.444881843E0,6.352811307E-2,1.444653720E-1,-6.230641901E-2,1.696707243E-1
2.447283770E0,5.375456065E-2,1.359135211E-1,-5.619794875E-2,1.565894231E-1
2.449686583E0,4.520269856E-2,1.298050433E-1,-5.253286287E-2,1.471473238E-1
2.452090072E0,3.665083647E-2,1.200314835E-1,-4.886778072E-2,1.346807367E-1
2.454492729E0,2.932066843E-2,1.151447073E-1,-4.520269856E-2,1.271270591E-1
2.456894708E0,2.321219631E-2,1.065928489E-1,-4.275930673E-2,1.171716681E-1
2.459297416E0,1.466033421E-2,1.053711548E-1,-4.031591862E-2,1.137689719E-1
2.461700958E0,7.330167107E-3,1.029277667E-1,-3.665083647E-2,1.095040654E-1
2.464103666E0,1.221694518E-3,1.004843712E-1,-3.420744836E-2,1.061543730E-1
2.466505593E0,-6.108472589E-3,1.017060652E-1,-3.054236248E-2,1.063685717E-1
2.468908302E0,-8.551862091E-3,1.029277667E-1,-2.809897438E-2,1.070364979E-1
2.471311895E0,-1.710372418E-2,1.053711548E-1,-2.565558441E-2,1.097899206E-1
2.473714552E0,-1.954711229E-2,1.065928489E-1,-2.199050039E-2,1.105789634E-1
2.476116479E0,-2.321219631E-2,1.065928489E-1,-1.832541823E-2,1.106194488E-1
2.478519291E0,-2.809897438E-2,1.029277667E-1,-1.588202827E-2,1.078699047E-1
2.480922781E0,-3.054236248E-2,9.804098308E-2,-1.343864016E-2,1.035638321E-1
2.483325437E0,-3.298575059E-2,9.193251282E-2,-9.773556143E-3,9.815889697E-2
2.485727416E0,-3.787253052E-2,8.460234851E-2,-7.330167107E-3,9.298181161E-2
2.488130125E0,-4.031591862E-2,7.727217674E-2,-4.886778072E-3,8.729400434E-2
2.490533666E0,-4.520269856E-2,6.994201243E-2,-1.221694518E-3,8.328662316E-2
2.492936375E0,-5.131116882E-2,6.261184067E-2,2.443389036E-3,8.098795458E-2
2.495338302E0,-5.253286287E-2,5.772506446E-2,7.330167107E-3,7.839397998E-2
2.497741010E0,-5.619794875E-2,5.161659420E-2,9.773556143E-3,7.692856843E-2
2.500144604E0,-5.986303091E-2,4.672981426E-2,1.221694518E-2,7.691886479E-2
2.502547260E0,-5.986303091E-2,4.428642616E-2,1.343864016E-2,7.566681611E-2
2.504949187E0,-6.474980712E-2,4.184303805E-2,1.588202827E-2,7.871223652E-2
2.507352000E0,-6.719319522E-2,3.817795217E-2,1.710372418E-2,7.915187235E-2
2.509755489E0,-6.841489673E-2,2.962609194E-2,1.588202827E-2,7.622691283E-2
2.512158145E0,-6.963659078E-2,2.351761982E-2,1.343864016E-2,7.471900874E-2
2.514560125E0,-7.085828483E-2,1.496575773E-2,1.343864016E-2,7.365777273E-2
2.516962833E0,-7.330167294E-2,5.192201585E-3,1.343864016E-2,7.470402440E-2
2.519366375E0,-7.452336699E-2,-5.803049076E-3,1.221694518E-2,7.574075096E-2
2.521769083E0,-7.574506104E-2,-1.191152167E-2,1.221694518E-2,7.764310897E-2
2.524171010E0,-7.818844914E-2,-1.924168877E-2,9.773556143E-3,8.111225904E-2
2.526573822E0,-8.185353130E-2,-2.535016090E-2,9.773556143E-3,8.624473111E-2
2.528977312E0,-8.063183725E-2,-3.023693897E-2,8.551862091E-3,8.653843078E-2
2.531379968E0,-8.307522535E-2,-3.268032894E-2,7.330167107E-3,8.957247522E-2
2.533781947E0,-8.674030751E-2,-3.512371704E-2,6.108472589E-3,9.378096759E-2
2.536184656E0,-8.429691941E-2,-3.512371704E-2,6.108472589E-3,9.152573167E-2
2.538588197E0,-8.796200156E-2,-3.512371704E-2,6.108472589E-3,9.491207855E-2
2.540990906E0,-8.796200156E-2,-3.268032894E-2,4.886778072E-3,9.396381334E-2
2.543392833E0,-8.674030751E-2,-3.023693897E-2,6.108472589E-3,9.206229881E-2
2.545795541E0,-8.796200156E-2,-2.779355086E-2,6.108472589E-3,9.245057396E-2
2.548199135E0,-8.307522535E-2,-2.290677279E-2,7.330167107E-3,8.648667329E-2
2.550601791E0,-8.429691941E-2,-1.924168877E-2,7.330167107E-3,8.677525314E-2
2.553003718E0,-8.185353130E-2,-1.557660475E-2,1.099525020E-2,8.404479002E-2
2.555406531E0,-7.574506104E-2,-1.068982668E-2,1.221694518E-2,7.746509160E-2
2.557810020E0,-7.330167294E-2,-9.468132630E-3,1.343864016E-2,7.512241902E-2
2.560212677E0,-6.841489673E-2,-7.024743594E-3,1.588202827E-2,7.058458712E-2
2.562614656E0,-6.352811307E-2,-8.246437646E-3,1.954711229E-2,6.697696979E-2
2.565017364E0,-6.108472496E-2,-8.246437646E-3,2.199050039E-2,6.544409420E-2
2.567420906E0,-5.741964281E-2,-7.024743594E-3,2.565558441E-2,6.328168308E-2
2.569823614E0,-5.497625470E-2,-4.581354558E-3,3.054236248E-2,6.305722240E-2
2.572225541E0,-5.008947477E-2,-5.803049076E-3,3.176405653E-2,5.959518562E-2
2.574628250E0,-4.520269856E-2,-4.581354558E-3,3.420744836E-2,5.687198159E-2
2.577031843E0,-4.153761268E-2,-9.162708884E-4,3.665083647E-2,5.540303812E-2
2.579434500E0,-4.031591862E-2,2.748812549E-3,3.909422457E-2,5.622532934E-2
2.581836427E0,-4.153761268E-2,7.635590620E-3,4.031591862E-2,5.838706026E-2
2.584239239E0,-4.031591862E-2,1.130067464E-2,3.787253052E-2,5.645712630E-2
2.586642729E0,-4.275930673E-2,1.985253580E-2,3.787253052E-2,6.047156404E-2
2.589045385E0,-4.275930673E-2,2.840439789E-2,3.542914242E-2,6.237300910E-2
2.591447364E0,-4.642439261E-2,3.695625812E-2,3.420744836E-2,6.849188833E-2
2.593850072E0,-4.642439261E-2,4.550812021E-2,3.054236248E-2,7.182652115E-2
2.596253614E0,-4.886778072E-2,5.039490014E-2,2.932066843E-2,7.607501265E-2
2.598656322E0,-5.131116882E-2,5.528167635E-2,2.687728032E-2,8.007051882E-2
2.601058250E0,-5.497625470E-2,5.894676223E-2,2.443389036E-2,8.422662499E-2
2.603460958E0,-5.864133686E-2,5.772506446E-2,2.199050039E-2,8.517377274E-2
2.605864552E0,-6.230641901E-2,5.405998230E-2,1.832541823E-2,8.450084313E-2
2.608267208E0,-6.841489673E-2,4.917320609E-2,1.466033421E-2,8.551916563E-2
2.610669135E0,-7.207997888E-2,4.428642616E-2,1.221694518E-2,8.547552075E-2
2.613071947E0,-7.452336699E-2,3.817795217E-2,9.773556143E-3,8.430190187E-2
2.615475437E0,-7.818844914E-2,2.962609194E-2,6.108472589E-3,8.383586548E-2
2.617878093E0,-8.307522535E-2,1.985253580E-2,2.443389036E-3,8.544932062E-2
2.620280072E0,-8.551861346E-2,1.252236869E-2,-1.221694518E-3,8.643920119E-2
2.622682781E0,-9.040539712E-2,7.635590620E-3,-4.886778072E-3,9.085878423E-2
2.625086322E0,-9.162709117E-2,3.054236295E-4,-9.773556143E-3,9.214737934E-2
2.627489031E0,-9.284878522E-2,-2.137965523E-3,-1.466033421E-2,9.402336525E-2
2.629890958E0,-9.284878522E-2,-4.581354558E-3,-1.832541823E-2,9.475076084E-2
2.632293666E0,-9.040539712E-2,-4.581354558E-3,-2.321219631E-2,9.345015085E-2
2.634697260E0,-9.040539712E-2,-2.137965523E-3,-2.809897438E-2,9.469561281E-2
2.637099916E0,-8.918370306E-2,3.054236295E-4,-3.176405653E-2,9.467196767E-2
2.639501843E0,-8.674030751E-2,1.527118147E-3,-3.542914242E-2,9.370932274E-2
2.641904656E0,-8.185353130E-2,3.970507067E-3,-3.787253052E-2,9.027787149E-2
2.644308145E0,-7.696675509E-2,1.527118147E-3,-4.031591862E-2,8.689986636E-2
2.646710802E0,-7.207997888E-2,2.748812549E-3,-4.275930673E-2,8.385366801E-2
2.649112781E0,-6.719319522E-2,3.054236295E-4,-4.520269856E-2,8.098334844E-2
2.651515489E0,-5.986303091E-2,-2.137965523E-3,-4.764608666E-2,7.653955148E-2
2.653919083E0,-5.619794875E-2,-7.024743594E-3,-5.008947477E-2,7.560761833E-2
2.656321739E0,-4.764608666E-2,-1.068982668E-2,-5.008947477E-2,6.995268009E-2
2.658723666E0,-4.031591862E-2,-1.191152167E-2,-5.131116882E-2,6.633320201E-2
2.661126479E0,-3.420744836E-2,-1.435491070E-2,-5.131116882E-2,6.331705166E-2
2.663529968E0,-2.687728032E-2,-1.557660475E-2,-5.131116882E-2,5.998212116E-2
2.665932625E0,-2.076880634E-2,-1.313321572E-2,-5.131116882E-2,5.689165771E-2
2.668334604E0,-1.466033421E-2,-1.068982668E-2,-4.886778072E-2,5.212732283E-2
2.670737312E0,-4.886778072E-3,-7.024743594E-3,-4.886778072E-2,4.961136578E-2
2.673140854E0,-0.000000000E0,-9.162708884E-4,-4.764608666E-2,4.765489615E-2
2.675543562E0,4.886778072E-3,3.970507067E-3,-4.642439261E-2,4.684943709E-2
2.677945489E0,1.099525020E-2,7.635590620E-3,-4.398100078E-2,4.597310301E-2
2.680348197E0,1.710372418E-2,1.130067464E-2,-4.398100078E-2,4.852392253E-2
2.682751791E0,2.321219631E-2,1.618745178E-2,-4.153761268E-2,5.026144565E-2
2.685154447E0,2.809897438E-2,1.740914769E-2,-3.909422457E-2,5.119559727E-2
2.687556375E0,3.298575059E-2,1.618745178E-2,-3.665083647E-2,5.189775670E-2
2.689959187E0,3.909422457E-2,1.496575773E-2,-3.298575059E-2,5.329532851E-2
2.692362677E0,4.031591862E-2,1.252236869E-2,-2.932066843E-2,5.139926662E-2
2.694765333E0,4.642439261E-2,1.007897966E-2,-2.687728032E-2,5.458203237E-2
2.697167312E0,4.275930673E-2,5.192201585E-3,-2.443389036E-2,4.952102854E-2
2.699570020E0,4.398100078E-2,3.054236295E-4,-2.199050039E-2,4.917320226E-2
2.701973562E0,4.642439261E-2,-2.137965523E-3,-2.321219631E-2,5.194806236E-2
2.704376270E0,4.642439261E-2,-5.803049076E-3,-2.076880634E-2,5.118830848E-2
2.706778197E0,4.642439261E-2,-5.803049076E-3,-2.199050039E-2,5.169605125E-2
2.709180906E0,4.764608666E-2,-7.024743594E-3,-2.199050039E-2,5.294410925E-2
2.711584500E0,4.520269856E-2,-8.246437646E-3,-2.565558441E-2,5.262600785E-2
2.713987156E0,4.398100078E-2,-5.803049076E-3,-2.687728032E-2,5.186898887E-2
2.716389083E0,4.275930673E-2,-3.359660041E-3,-2.932066843E-2,5.195524251E-2
2.718791895E0,4.153761268E-2,-2.137965523E-3,-3.054236248E-2,5.160213241E-2
2.721195385E0,3.665083647E-2,3.054236295E-4,-3.542914242E-2,5.097647722E-2
2.723598041E0,3.787253052E-2,2.748812549E-3,-4.031591862E-2,5.538282977E-2
2.726000020E0,3.665083647E-2,3.970507067E-3,-4.031591862E-2,5.462986395E-2
2.728402729E0,3.298575059E-2,2.748812549E-3,-4.520269856E-2,5.602588392E-2
2.730806270E0,2.932066843E-2,1.527118147E-3,-4.642439261E-2,5.492957233E-2
2.733208979E0,2.565558441E-2,3.054236295E-4,-5.131116882E-2,5.736844377E-2
2.735610906E0,2.443389036E-2,-9.162708884E-4,-5.253286287E-2,5.794442365E-2
2.738013614E0,1.954711229E-2,-3.359660041E-3,-5.497625470E-2,5.844455060E-2
2.740417208E0,1.710372418E-2,-3.359660041E-3,-5.619794875E-2,5.883905285E-2
2.742819864E0,9.773556143E-3,-4.581354558E-3,-5.741964281E-2,5.842539336E-2
2.745221791E0,4.886778072E-3,-4.581354558E-3,-5.741964281E-2,5.780903726E-2
2.747624604E0,2.443389036E-3,-9.162708884E-4,-5.741964281E-2,5.747890989E-2
2.750028093E0,-6.108472589E-3,3.054236295E-4,-5.741964281E-2,5.774445515E-2
2.752430802E0,-9.773556143E-3,3.970507067E-3,-5.375456065E-2,5.477992439E-2
2.754832729E0,-1.343864016E-2,5.192201585E-3,-5.131116882E-2,5.329532862E-2
2.757235437E0,-1.588202827E-2,8.857285604E-3,-4.886778072E-2,5.214163713E-2
2.759638979E0,-2.076880634E-2,1.130067464E-2,-4.520269856E-2,5.101306226E-2
2.762041687E0,-2.443389036E-2,1.130067464E-2,-4.031591862E-2,4.847776335E-2
2.764443614E0,-2.443389036E-2,8.857285604E-3,-3.787253052E-2,4.593250564E-2
2.766846322E0,-2.443389036E-2,7.635590620E-3,-3.298575059E-2,4.175376610E-2
2.769249916E0,-2.565558441E-2,3.970507067E-3,-2.932066843E-2,3.916216969E-2
2.771652572E0,-2.443389036E-2,3.054236295E-4,-2.687728032E-2,3.632487411E-2
2.774054500E0,-2.443389036E-2,-5.803049076E-3,-2.321219631E-2,3.419790102E-2
2.776457312E0,-1.832541823E-2,-9.468132630E-3,-1.954711229E-2,2.841753134E-2
2.778860802E0,-1.588202827E-2,-1.557660475E-2,-1.710372418E-2,2.806077010E-2
2.781263458E0,-1.099525020E-2,-2.046338283E-2,-1.466033421E-2,2.746945509E-2
2.783665437E0,-1.099525020E-2,-2.168507688E-2,-1.099525020E-2,2.668395797E-2
2.786068145E0,-9.773556143E-3,-2.535016090E-2,-8.551862091E-3,2.848310732E-2
2.788471739E0,-6.108472589E-3,-2.779355086E-2,-6.108472589E-3,2.910512574E-2
2.790874395E0,-3.665083554E-3,-2.779355086E-2,-3.665083554E-3,2.827272793E-2
2.793276322E0,-2.443389036E-3,-2.779355086E-2,-1.221694518E-3,2.792748032E-2
2.795679135E0,-1.221694518E-3,-2.657185495E-2,-1.221694518E-3,2.662796557E-2
2.798082625E0,-1.221694518E-3,-2.412846684E-2,1.221694518E-3,2.419024570E-2
2.800485281E0,-2.443389036E-3,-2.290677279E-2,2.443389036E-3,2.316593490E-2
2.802887260E0,-4.886778072E-3,-2.168507688E-2,3.665083554E-3,2.252900345E-2
2.805289968E0,-6.108472589E-3,-1.801999472E-2,4.886778072E-3,1.964470023E-2
2.807693510E0,-9.773556143E-3,-1.679829881E-2,6.108472589E-3,2.037200726E-2
2.810096218E0,-1.099525020E-2,-1.557660475E-2,7.330167107E-3,2.042688161E-2
2.812498145E0,-1.710372418E-2,-1.435491070E-2,7.330167107E-3,2.350174870E-2
2.814900854E0,-1.832541823E-2,-1.313321572E-2,8.551862091E-3,2.411299761E-2
2.817304447E0,-1.954711229E-2,-1.313321572E-2,8.551862091E-3,2.505404756E-2
2.819707104E0,-2.565558441E-2,-1.313321572E-2,8.551862091E-3,3.006367761E-2
2.822109031E0,-2.687728032E-2,-1.313321572E-2,6.108472589E-3,3.053167192E-2
2.824511843E0,-2.809897438E-2,-1.313321572E-2,6.108472589E-3,3.161245251E-2
2.826915333E0,-3.542914242E-2,-1.435491070E-2,6.108472589E-3,3.871176864E-2
2.829317989E0,-3.665083647E-2,-1.313321572E-2,3.665083554E-3,3.910496140E-2
2.831719968E0,-4.031591862E-2,-1.068982668E-2,3.665083554E-3,4.186978059E-2
2.834122677E0,-4.275930673E-2,-7.024743594E-3,2.443389036E-3,4.340133045E-2
2.836526218E0,-4.398100078E-2,-5.803049076E-3,2.443389036E-3,4.442942672E-2
2.838928927E0,-4.886778072E-2,-9.162708884E-4,2.443389036E-3,4.893740588E-2
2.841330854E0,-5.253286287E-2,3.970507067E-3,1.221694518E-3,5.269686087E-2
2.843733562E0,-5.497625470E-2,6.413896102E-3,1.221694518E-3,5.536261538E-2
2.846137156E0,-5.619794875E-2,1.007897966E-2,2.443389036E-3,5.714687590E-2
2.848539812E0,-5.864133686E-2,8.857285604E-3,2.443389036E-3,5.935678602E-2
2.850941739E0,-5.986303091E-2,7.635590620E-3,2.443389036E-3,6.039747399E-2
2.853344552E0,-6.230641901E-2,5.192201585E-3,3.665083554E-3,6.262971855E-2
2.855748041E0,-6.108472496E-2,3.054236295E-4,3.665083554E-3,6.119534088E-2
2.858150697E0,-6.108472496E-2,-3.359660041E-3,2.443389036E-3,6.122582045E-2
2.860552677E0,-5.986303091E-2,-7.024743594E-3,2.443389036E-3,6.032329270E-2
2.862955385E0,-5.741964281E-2,-1.068982668E-2,2.443389036E-3,5.845731712E-2
2.865358927E0,-5.619794875E-2,-1.435491070E-2,3.665083554E-3,5.811803285E-2
2.867761635E0,-5.497625470E-2,-1.313321572E-2,2.443389036E-3,5.657596739E-2
2.870163562E0,-5.253286287E-2,-1.435491070E-2,3.665083554E-3,5.458202983E-2
2.872566270E0,-5.131116882E-2,-1.679829881E-2,3.665083554E-3,5.411517094E-2
2.874969864E0,-5.131116882E-2,-1.679829881E-2,3.665083554E-3,5.411517094E-2
2.877372520E0,-5.131116882E-2,-1.801999472E-2,6.108472589E-3,5.472540263E-2
2.879774447E0,-5.008947477E-2,-1.924168877E-2,7.330167107E-3,5.415652702E-2
2.882177260E0,-5.253286287E-2,-2.046338283E-2,8.551862091E-3,5.702268025E-2
2.884580750E0,-5.497625470E-2,-2.290677279E-2,9.773556143E-3,6.035421460E-2
2.886983406E0,-5.497625470E-2,-2.168507688E-2,1.221694518E-2,6.034803137E-2
2.889385385E0,-5.619794875E-2,-2.412846684E-2,1.343864016E-2,6.261780422E-2
2.891788093E0,-5.741964281E-2,-2.779355086E-2,1.588202827E-2,6.573990927E-2
2.894191635E0,-5.741964281E-2,-2.657185495E-2,1.588202827E-2,6.523279603E-2
2.896594343E0,-5.986303091E-2,-2.535016090E-2,1.710372418E-2,6.722165208E-2
2.898996270E0,-5.986303091E-2,-2.412846684E-2,1.832541823E-2,6.709386213E-2
2.901398979E0,-5.497625470E-2,-2.412846684E-2,1.954711229E-2,6.314001182E-2
2.903802572E0,-5.375456065E-2,-2.412846684E-2,1.954711229E-2,6.207918574E-2
2.906205229E0,-5.131116882E-2,-2.657185495E-2,2.199050039E-2,6.182622121E-2
2.908607156E0,-4.886778072E-2,-3.145863488E-2,2.076880634E-2,6.171749361E-2
2.911009968E0,-4.520269856E-2,-3.634541109E-2,2.076880634E-2,6.160857230E-2
2.913413458E0,-4.031591862E-2,-4.245388508E-2,2.321219631E-2,6.298024857E-2
2.915816114E0,-3.542914242E-2,-5.222744122E-2,2.321219631E-2,6.724385330E-2
2.918218093E0,-2.809897438E-2,-6.077930331E-2,2.321219631E-2,7.086947248E-2
2.920620802E0,-2.443389036E-2,-7.055285573E-2,2.443389036E-2,7.856039363E-2
2.923024343E0,-2.076880634E-2,-8.154810965E-2,2.687728032E-2,8.833926478E-2
2.925427052E0,-1.466033421E-2,-8.887827396E-2,2.565558441E-2,9.366152889E-2
2.927828979E0,-9.773556143E-3,-9.620844573E-2,2.687728032E-2,1.003691966E-1
2.930231687E0,-6.108472589E-3,-1.010952219E-1,2.687728032E-2,1.047852353E-1
2.932635281E0,-2.443389036E-3,-1.035386100E-1,2.932066843E-2,1.076378907E-1
2.935037937E0,2.443389036E-3,-1.059819981E-1,2.932066843E-2,1.099902527E-1
2.937439864E0,2.443389036E-3,-1.096470803E-1,3.054236248E-2,1.138476538E-1
2.939842677E0,7.330167107E-3,-1.108687744E-1,3.176405653E-2,1.155619823E-1
2.942246166E0,7.330167107E-3,-1.120904684E-1,3.176405653E-2,1.167345696E-1
2.944648875E0,1.099525020E-2,-1.108687744E-1,3.176405653E-2,1.158522160E-1
2.947050802E0,1.099525020E-2,-1.133121699E-1,3.176405653E-2,1.181926337E-1
2.949453510E0,1.099525020E-2,-1.120904684E-1,3.176405653E-2,1.170218951E-1
2.951857052E0,1.221694518E-2,-1.120904684E-1,3.176405653E-2,1.171429987E-1
2.954259760E0,1.099525020E-2,-1.120904684E-1,3.054236248E-2,1.166962062E-1
2.956661687E0,7.330167107E-3,-1.096470803E-1,3.176405653E-2,1.143904229E-1
2.959064395E0,4.886778072E-3,-1.108687744E-1,3.054236248E-2,1.151025701E-1
2.961467989E0,4.886778072E-3,-1.096470803E-1,3.176405653E-2,1.142598709E-1
2.963870645E0,-0.000000000E0,-1.108687744E-1,3.176405653E-2,1.153292695E-1
2.966272625E0,-3.665083554E-3,-1.133121699E-1,3.054236248E-2,1.174134430E-1
2.968675333E0,-7.330167107E-3,-1.157555580E-1,2.932066843E-2,1.196360404E-1
2.971078875E0,-9.773556143E-3,-1.133121699E-1,3.054236248E-2,1.177624989E-1
2.973481531E0,-1.466033421E-2,-1.133121699E-1,2.687728032E-2,1.173753017E-1
2.975883510E0,-1.832541823E-2,-1.133121699E-1,2.443389036E-2,1.173562261E-1
2.978286218E0,-2.076880634E-2,-1.096470803E-1,2.199050039E-2,1.137427257E-1
2.980689812E0,-2.687728032E-2,-1.084253863E-1,1.954711229E-2,1.134043305E-1
2.983092468E0,-3.176405653E-2,-1.059819981E-1,1.710372418E-2,1.119539039E-1
2.985494395E0,-3.665083647E-2,-1.047603041E-1,1.466033421E-2,1.119505718E-1
2.987897208E0,-4.398100078E-2,-1.035386100E-1,1.221694518E-2,1.131539922E-1
2.990300697E0,-4.520269856E-2,-1.035386100E-1,1.099525020E-2,1.135095734E-1
2.992703354E0,-5.131116882E-2,-1.059819981E-1,8.551862091E-3,1.180599607E-1
2.995105333E0,-5.375456065E-2,-1.084253863E-1,8.551862091E-3,1.213208618E-1
2.997508041E0,-5.741964281E-2,-1.133121699E-1,6.108472589E-3,1.271769502E-1
2.999911583E0,-5.986303091E-2,-1.230857223E-1,6.108472589E-3,1.370072660E-1
3.002314291E0,-6.474980712E-2,-1.304158866E-1,4.886778072E-3,1.456870674E-1
3.004716218E0,-6.597150117E-2,-1.401894391E-1,4.886778072E-3,1.550135426E-1
3.007118927E0,-6.841489673E-2,-1.499630064E-1,4.886778072E-3,1.649041600E-1
3.009522520E0,-7.085828483E-2,-1.609582454E-1,3.665083554E-3,1.759030589E-1
3.011925177E0,-7.207997888E-2,-1.719534993E-1,4.886778072E-3,1.865138330E-1
3.014327104E0,-7.452336699E-2,-1.853921413E-1,6.108472589E-3,1.999032059E-1
3.016729916E0,-7.574506104E-2,-2.024958730E-1,6.108472589E-3,2.162850117E-1
3.019133406E0,-7.696675509E-2,-2.183778882E-1,8.551862091E-3,2.317022179E-1
3.021536062E0,-7.818844914E-2,-2.330382317E-1,9.773556143E-3,2.459995395E-1
3.023938041E0,-8.307522535E-2,-2.501419485E-1,1.099525020E-2,2.638055780E-1
3.026340750E0,-8.674030751E-2,-2.696890533E-1,1.466033421E-2,2.836740944E-1
3.028744291E0,-8.918370306E-2,-2.867927849E-1,1.588202827E-2,3.007591615E-1
3.031147000E0,-9.529217333E-2,-3.051182032E-1,1.954711229E-2,3.202495992E-1
3.033548927E0,-1.026223376E-1,-3.234436214E-1,2.199050039E-2,3.400451478E-1
3.035951635E0,-1.099525094E-1,-3.393256664E-1,2.443389036E-2,3.575310857E-1
3.038355229E0,-1.185043678E-1,-3.564293683E-1,2.687728032E-2,3.765734562E-1
3.040757885E0,-1.282779276E-1,-3.710896969E-1,2.932066843E-2,3.937289568E-1
3.043159812E0,-1.368297935E-1,-3.845283389E-1,3.054236248E-2,4.092887388E-1
3.045562625E0,-1.490467340E-1,-3.967452943E-1,3.176405653E-2,4.250067209E-1
3.047966114E0,-1.612636745E-1,-4.077405334E-1,3.420744836E-2,4.398050304E-1
3.050368770E0,-1.710372269E-1,-4.175141156E-1,3.542914242E-2,4.525781632E-1
3.052770750E0,-1.856975704E-1,-4.272876680E-1,3.665083647E-2,4.673345939E-1
3.055173458E0,-2.003578991E-1,-4.370612204E-1,4.031591862E-2,4.824843743E-1
3.057577000E0,-2.162399292E-1,-4.480564594E-1,4.153761268E-2,4.992390921E-1
3.059979708E0,-2.321219593E-1,-4.578300118E-1,4.642439261E-2,5.154067791E-1
3.062381635E0,-2.467822880E-1,-4.724903405E-1,5.008947477E-2,5.354041230E-1
3.064784343E0,-2.638860047E-1,-4.895940721E-1,5.497625470E-2,5.588922682E-1
3.067187937E0,-2.748812735E-1,-5.066977739E-1,5.864133686E-2,5.794317518E-1
3.069590593E0,-2.919849753E-1,-5.286883116E-1,6.108472496E-2,6.070402789E-1
3.071992520E0,-3.054236174E-1,-5.531222224E-1,6.474980712E-2,6.351537739E-1
3.074395333E0,-3.164188862E-1,-5.738909841E-1,7.085828483E-2,6.591605796E-1
3.076798822E0,-3.286358118E-1,-5.971031785E-1,7.330167294E-2,6.854975112E-1
3.079201479E0,-3.384093940E-1,-6.203153729E-1,7.818844914E-2,7.109328474E-1
3.081603458E0,-3.457395434E-1,-6.459710002E-1,8.185353130E-2,7.372342678E-1
3.084006166E0,-3.506263196E-1,-6.728482842E-1,8.551861346E-2,7.635293464E-1
3.086409708E0,-3.567348123E-1,-7.033905983E-1,8.918370306E-2,7.937076243E-1
3.088812416E0,-3.579564989E-1,-7.327113152E-1,9.162709117E-2,8.206060262E-1
3.091214343E0,-3.603998721E-1,-7.644753456E-1,9.284878522E-2,8.502537967E-1
3.093617052E0,-3.603998721E-1,-7.974610925E-1,9.162709117E-2,8.799021455E-1
3.096020645E0,-3.603998721E-1,-8.328902125E-1,9.284878522E-2,9.122582260E-1
3.098423302E0,-3.603998721E-1,-8.683193922E-1,9.040539712E-2,9.444785707E-1
3.100825229E0,-3.616215885E-1,-9.061918855E-1,9.040539712E-2,9.798607260E-1
3.103228041E0,-3.677300513E-1,-9.440644383E-1,9.040539712E-2,1.017180510E0
3.105631531E0,-3.713951409E-1,-9.807152748E-1,8.796200156E-2,1.052365960E0
3.108034187E0,-3.762819171E-1,-1.017366052E0,8.429691941E-2,1.087992525E0
3.110436166E0,-3.811686933E-1,-1.054016948E0,7.818844914E-2,1.123545608E0
3.112838875E0,-3.897205591E-1,-1.088224411E0,6.963659078E-2,1.157999887E0
3.115242416E0,-3.994941115E-1,-1.121210098E0,5.864133686E-2,1.191698970E0
3.117645125E0,-4.104893506E-1,-1.154195905E0,4.764608666E-2,1.225944470E0
3.120047052E0,-4.202629030E-1,-1.185959935E0,3.420744836E-2,1.258686627E0
3.122449760E0,-4.337015450E-1,-1.220167398E0,1.954711229E-2,1.295101386E0
3.124853354E0,-4.508052766E-1,-1.249488115E0,2.443389036E-3,1.328326736E0
3.127256010E0,-4.679090083E-1,-1.280030489E0,-1.588202827E-2,1.362963364E0
3.129657937E0,-4.886777997E-1,-1.308129430E0,-3.298575059E-2,1.396816615E0
3.132060750E0,-5.118899941E-1,-1.330119848E0,-5.131116882E-2,1.426142704E0
3.134464239E0,-5.338805318E-1,-1.354553819E0,-7.085828483E-2,1.457691794E0
3.136866895E0,-5.607577562E-1,-1.372879267E0,-9.284878522E-2,1.485889511E0
3.139268875E0,-5.864133835E-1,-1.389982939E0,-1.136175916E-1,1.512891993E0
3.141671583E0,-6.145123243E-1,-1.400978208E0,-1.356080920E-1,1.535823847E0
3.144075125E0,-6.426113248E-1,-1.411973476E0,-1.575985998E-1,1.559312583E0
3.146477833E0,-6.731536984E-1,-1.419303656E0,-1.759240031E-1,1.580666955E0
3.148879760E0,-7.024743557E-1,-1.421746969E0,-1.954711229E-1,1.597824654E0
3.151282468E0,-7.330167294E-1,-1.418081880E0,-2.150182426E-1,1.610745972E0
3.153686062E0,-7.586722970E-1,-1.413195133E0,-2.333436459E-1,1.620849591E0
3.156088718E0,-7.855495811E-1,-1.403421521E0,-2.516690791E-1,1.627887415E0
3.158490645E0,-8.099834919E-1,-1.388761282E0,-2.675510943E-1,1.629820464E0
3.160893458E0,-8.319739699E-1,-1.370435834E0,-2.858765125E-1,1.628496375E0
3.163296947E0,-8.539644480E-1,-1.348445296E0,-3.017585576E-1,1.624382413E0
3.165699604E0,-8.661814332E-1,-1.327676535E0,-3.139754832E-1,1.616037085E0
3.168101583E0,-8.796200752E-1,-1.306907654E0,-3.274141252E-1,1.609018055E0
3.170504291E0,-8.930587173E-1,-1.289803982E0,-3.384093940E-1,1.604889124E0
3.172907833E0,-9.016105533E-1,-1.276365399E0,-3.469612300E-1,1.600747425E0
3.175310541E0,-9.064973593E-1,-1.269035220E0,-3.542914093E-1,1.599284295E0
3.177712468E0,-9.101623893E-1,-1.267813444E0,-3.616215885E-1,1.602035167E0
3.180115177E0,-9.162709117E-1,-1.267813444E0,-3.628432751E-1,1.605789076E0
3.182518770E0,-9.248227477E-1,-1.275143623E0,-3.628432751E-1,1.616460212E0
3.184921427E0,-9.260444641E-1,-1.287360549E0,-3.616215885E-1,1.626537951E0
3.187323354E0,-9.272661209E-1,-1.309351087E0,-3.579564989E-1,1.643884297E0
3.189726166E0,-9.272661209E-1,-1.335006714E0,-3.555130959E-1,1.663867467E0
3.192129656E0,-9.297095537E-1,-1.365549088E0,-3.506263196E-1,1.688793351E0
3.194532312E0,-9.345963001E-1,-1.396091461E0,-3.445178568E-1,1.715002672E0
3.196934291E0,-9.358180165E-1,-1.421746969E0,-3.384093940E-1,1.735407941E0
3.199337000E0,-9.345963001E-1,-1.443737507E0,-3.323009014E-1,1.751648401E0
3.201740541E0,-9.394831061E-1,-1.459619522E0,-3.274141252E-1,1.766442092E0
3.204143250E0,-9.431481957E-1,-1.466949701E0,-3.225273490E-1,1.773554013E0
3.206545177E0,-9.431481957E-1,-1.466949701E0,-3.200839758E-1,1.773111304E0
3.208947885E0,-9.455915689E-1,-1.466949701E0,-3.200839758E-1,1.774412182E0
3.211351479E0,-9.492566586E-1,-1.468171358E0,-3.225273490E-1,1.777818672E0
3.213754135E0,-9.492566586E-1,-1.473058224E0,-3.249707520E-1,1.782300402E0
3.216156062E0,-9.565867782E-1,-1.479166627E0,-3.274141252E-1,1.791700919E0
3.218558875E0,-9.639169574E-1,-1.486496806E0,-3.323009014E-1,1.802562771E0
3.220962364E0,-9.688037634E-1,-1.492605329E0,-3.371876776E-1,1.811117591E0
3.223365020E0,-9.749122262E-1,-1.497492075E0,-3.445178568E-1,1.819788152E0
3.225767000E0,-9.810206890E-1,-1.497492075E0,-3.542914093E-1,1.824940139E0
3.228169708E0,-9.846857786E-1,-1.493826985E0,-3.652866483E-1,1.826077622E0
3.230573250E0,-9.895725846E-1,-1.485275149E0,-3.799470067E-1,1.824734473E0
3.232975958E0,-9.932376146E-1,-1.473058224E0,-3.933856487E-1,1.819663089E0
3.235377885E0,-9.969027042E-1,-1.460841179E0,-4.080459774E-1,1.815040901E0
3.237780593E0,-9.993461370E-1,-1.444959164E0,-4.239279926E-1,1.807294837E0
3.240184187E0,-1.001789451E0,-1.430298805E0,-4.422534108E-1,1.801367496E0
3.242586843E0,-1.001789451E0,-1.415638566E0,-4.593571424E-1,1.794052295E0
3.244988770E0,-1.005454540E0,-1.403421521E0,-4.776825607E-1,1.791287645E0
3.247391583E0,-1.007897973E0,-1.386317849E0,-4.947862923E-1,1.783970005E0
3.249795072E0,-1.007897973E0,-1.369214177E0,-5.131117105E-1,1.775919315E0
3.252197729E0,-1.010341406E0,-1.349667072E0,-5.265503526E-1,1.766252031E0
3.254599708E0,-1.011563063E0,-1.331341624E0,-5.412106514E-1,1.757452508E0
3.257002416E0,-1.011563063E0,-1.311794519E0,-5.534276366E-1,1.746524217E0
3.259405958E0,-1.014006495E0,-1.292247415E0,-5.619794726E-1,1.736068398E0
3.261808666E0,-1.015228152E0,-1.272700310E0,-5.705313683E-1,1.725097192E0
3.264210593E0,-1.016449809E0,-1.253153205E0,-5.790832043E-1,1.714322177E0
3.266613302E0,-1.014006495E0,-1.234827757E0,-5.851916671E-1,1.701604551E0
3.269016895E0,-1.017671585E0,-1.216502309E0,-5.900784731E-1,1.692254687E0
3.271419552E0,-1.015228152E0,-1.198176861E0,-5.949652195E-1,1.679374766E0
3.273821479E0,-1.011563063E0,-1.183516622E0,-5.998520255E-1,1.668470520E0
3.276224291E0,-1.006676316E0,-1.167634487E0,-6.035171151E-1,1.655596693E0
3.278627781E0,-1.003011227E0,-1.151752472E0,-6.059604883E-1,1.643092630E0
3.281030437E0,-9.981244206E-1,-1.137092113E0,-6.059604883E-1,1.629852431E0
3.283432416E0,-9.920159578E-1,-1.123653531E0,-6.084038615E-1,1.617667511E0
3.285835125E0,-9.834640622E-1,-1.108993173E0,-6.071822047E-1,1.601792012E0
3.288238666E0,-9.724688530E-1,-1.091889501E0,-6.047387719E-1,1.582285478E0
3.290641375E0,-9.565867782E-1,-1.072342396E0,-6.022953987E-1,1.558119452E0
3.293043302E0,-9.455915689E-1,-1.052795291E0,-6.010736823E-1,1.537468995E0
3.295446010E0,-9.297095537E-1,-1.029583097E0,-5.986303091E-1,1.510880357E0
3.297849604E0,-9.113841057E-1,-1.003927469E0,-5.961869359E-1,1.481192160E0
3.300252260E0,-8.906152844E-1,-9.721634388E-1,-5.925218463E-1,1.445468600E0
3.302654187E0,-8.661814332E-1,-9.330691695E-1,-5.888567567E-1,1.402726142E0
3.305057000E0,-8.393041492E-1,-8.915315866E-1,-5.864133835E-1,1.357623173E0
3.307460489E0,-8.050966859E-1,-8.451071978E-1,-5.851916671E-1,1.305693738E0
3.309863145E0,-7.672241330E-1,-7.962393761E-1,-5.827482939E-1,1.249890230E0
3.312265125E0,-7.232431769E-1,-7.473716140E-1,-5.839699507E-1,1.192755602E0
3.314667833E0,-6.768187881E-1,-7.009472251E-1,-5.851916671E-1,1.136600181E0
3.317071375E0,-6.230642200E-1,-6.581879258E-1,-5.888567567E-1,1.080820359E0
3.319474083E0,-5.656445622E-1,-6.154286265E-1,-5.937435627E-1,1.025298778E0
3.321876010E0,-5.057815313E-1,-5.714476109E-1,-5.986303091E-1,9.699100867E-1
3.324278718E0,-4.385883212E-1,-5.274665952E-1,-6.059604883E-1,9.152971310E-1
3.326682312E0,-3.713951409E-1,-4.798205197E-1,-6.096255779E-1,8.601194260E-1
3.329084968E0,-3.017585576E-1,-4.285093546E-1,-6.169557571E-1,8.095139902E-1
3.331486895E0,-2.260134816E-1,-3.747547865E-1,-6.218425035E-1,7.604020930E-1
3.333889708E0,-1.514901221E-1,-3.185568452E-1,-6.279509664E-1,7.202431095E-1
3.336293197E0,-7.207997888E-2,-2.611372173E-1,-6.340594292E-1,6.895067290E-1
3.338695854E0,7.330167107E-3,-1.976090819E-1,-6.377245188E-1,6.676792961E-1
3.341097833E0,8.674030751E-2,-1.365243644E-1,-6.401679516E-1,6.602861419E-1
3.343500541E0,1.673721522E-1,-8.032641560E-2,-6.426113248E-1,6.688909366E-1
3.345904083E0,2.431172132E-1,-2.290677279E-2,-6.426113248E-1,6.874445537E-1
3.348306791E0,3.188622594E-1,3.329117596E-2,-6.401679516E-1,7.159584130E-1
3.350708718E0,3.946073353E-1,8.704573661E-2,-6.377245188E-1,7.549731593E-1
3.353111427E0,4.666872919E-1,1.383569092E-1,-6.328377724E-1,7.983879438E-1
3.355515020E0,5.363239050E-1,1.896680743E-1,-6.279509664E-1,8.473132394E-1
3.357917677E0,5.998520255E-1,2.385358512E-1,-6.218425035E-1,8.963313584E-1
3.360319604E0,6.633801460E-1,2.861819267E-1,-6.145123243E-1,9.484717761E-1
3.362722416E0,7.244648337E-1,3.301629424E-1,-6.096255779E-1,1.002746333E0
3.365125906E0,7.831062078E-1,3.765873313E-1,-6.035171151E-1,1.057972712E0
3.367528562E0,8.344173431E-1,4.254551232E-1,-5.974085927E-1,1.110928166E0
3.369930541E0,8.820634484E-1,4.731011987E-1,-5.888567567E-1,1.161297960E0
3.372333250E0,9.248227477E-1,5.244123936E-1,-5.778614879E-1,1.210053458E0
3.374736791E0,9.626953006E-1,5.781669021E-1,-5.680879354E-1,1.258484450E0
3.377139500E0,9.956810474E-1,6.319214702E-1,-5.570927262E-1,1.304246065E0
3.379541427E0,1.021336675E0,6.844543815E-1,-5.473191738E-1,1.345795186E0
3.381944135E0,1.048213840E0,7.406523228E-1,-5.363239050E-1,1.391028917E0
3.384347729E0,1.068982720E0,7.907418013E-1,-5.241069198E-1,1.429225215E0
3.386750385E0,1.083643079E0,8.444963098E-1,-5.143333673E-1,1.466968013E0
3.389152312E0,1.097081661E0,8.982508779E-1,-5.033381581E-1,1.504590347E0
3.391555125E0,1.106855273E0,9.532271624E-1,-4.911212027E-1,1.541093980E0
3.393958614E0,1.116628766E0,1.009425044E0,-4.789042473E-1,1.579603747E0
3.396361270E0,1.122737288E0,1.064401388E0,-4.666872919E-1,1.615947512E0
3.398763250E0,1.125180602E0,1.114490867E0,-4.532486796E-1,1.647287359E0
3.401165958E0,1.128845692E0,1.159693480E0,-4.398100376E-1,1.677085100E0
3.403569500E0,1.132510781E0,1.193900943E0,-4.263713956E-1,1.699933145E0
3.405972208E0,1.133732557E0,1.221999884E0,-4.129327536E-1,1.717307976E0
3.408374135E0,1.137397647E0,1.246433854E0,-3.994941115E-1,1.734031806E0
3.410776843E0,1.141062737E0,1.265980959E0,-3.836120665E-1,1.746965991E0
3.413180437E0,1.143506050E0,1.286749721E0,-3.665083647E-1,1.760016850E0
3.415583093E0,1.148392797E0,1.308740258E0,-3.494046330E-1,1.775863361E0
3.417985020E0,1.152057886E0,1.333174109E0,-3.298575282E-1,1.792594926E0
3.420387833E0,1.156944752E0,1.356386304E0,-3.090887070E-1,1.809375802E0
3.422791322E0,1.160609841E0,1.380820274E0,-2.883199155E-1,1.826693244E0
3.425193979E0,1.164274931E0,1.404032469E0,-2.663294077E-1,1.843305358E0
3.427595958E0,1.171604991E0,1.424801230E0,-2.431172132E-1,1.860597426E0
3.429998666E0,1.180156946E0,1.443126678E0,-2.223484069E-1,1.877451422E0
3.432402208E0,1.189930439E0,1.459008694E0,-1.991362125E-1,1.893223719E0
3.434804916E0,1.197260618E0,1.474890709E0,-1.747023165E-1,1.907683540E0
3.437206843E0,1.208255887E0,1.491994381E0,-1.502684206E-1,1.925749236E0
3.439609552E0,1.219251156E0,1.505433083E0,-1.258345395E-1,1.941323383E0
3.442013145E0,1.233911514E0,1.521315098E0,-1.001789495E-1,1.961370203E0
3.444415802E0,1.247350097E0,1.537197113E0,-7.330167294E-2,1.980967027E0
3.446817729E0,1.262010455E0,1.554300904E0,-4.764608666E-2,2.002696143E0
3.449220541E0,1.277892470E0,1.571404576E0,-1.954711229E-2,2.025513169E0
3.451624031E0,1.290109396E0,1.584843159E0,9.773556143E-3,2.043576672E0
3.454026687E0,1.303548098E0,1.597060204E0,3.665083647E-2,2.061839523E0
3.456428666E0,1.318208337E0,1.612942219E0,6.352811307E-2,2.084056535E0
3.458831375E0,1.332868695E0,1.625159144E0,8.796200156E-2,2.103667872E0
3.461234916E0,1.347529054E0,1.638597727E0,1.111742035E-1,2.124428574E0
3.463637625E0,1.360967636E0,1.656923175E0,1.331647038E-1,2.148338929E0
3.466039552E0,1.374406338E0,1.676470280E0,1.514901221E-1,2.173130147E0
3.468442260E0,1.386623263E0,1.696017385E0,1.685938388E-1,2.197185228E0
3.470845854E0,1.397618532E0,1.716786265E0,1.844758689E-1,2.221423865E0
3.473248510E0,1.404948711E0,1.739998460E0,1.991362125E-1,2.245246257E0
3.475650437E0,1.411057115E0,1.763210654E0,2.125748396E-1,2.268299375E0
3.478053250E0,1.415943980E0,1.788866162E0,2.260134816E-1,2.292601491E0
3.480456739E0,1.418387294E0,1.815743446E0,2.382304370E-1,2.316355007E0
3.482859395E0,1.415943980E0,1.848729253E0,2.516690791E-1,2.342228539E0
3.485261375E0,1.413500547E0,1.881714940E0,2.651077211E-1,2.368357451E0
3.487664083E0,1.408613801E0,1.915922403E0,2.785463631E-1,2.394272243E0
3.490067625E0,1.401283622E0,1.955016613E0,2.944283783E-1,2.423298128E0
3.492470333E0,1.391510010E0,1.995332599E0,3.103103936E-1,2.452334567E0
3.494872260E0,1.381736517E0,2.039313555E0,3.274141252E-1,2.484994082E0
3.497274968E0,1.369519591E0,2.080851078E0,3.445178568E-1,2.514799728E0
3.499678562E0,1.356080890E0,2.123610497E0,3.640649617E-1,2.545824074E0
3.502081218E0,1.341420531E0,2.167591572E0,3.836120665E-1,2.577793724E0
3.504483145E0,1.325538516E0,2.212794304E0,4.031592011E-1,2.610756276E0
3.506885958E0,1.314543247E0,2.257996798E0,4.239279926E-1,2.646939446E0
3.509289447E0,1.298661232E0,2.308086395E0,4.446968138E-1,2.685430889E0
3.511692104E0,1.287665963E0,2.358175755E0,4.654656053E-1,2.726854369E0
3.514094083E0,1.279114127E0,2.413151979E0,4.862344265E-1,2.774141190E0
3.516496791E0,1.266897202E0,2.466906548E0,5.070032477E-1,2.819168091E0
3.518900333E0,1.258345366E0,2.524326324E0,5.277720094E-1,2.869529534E0
3.521303041E0,1.247350097E0,2.584189415E0,5.460974574E-1,2.920982648E0
3.523704968E0,1.237576604E0,2.639165640E0,5.644228458E-1,2.969067913E0
3.526107677E0,1.224137902E0,2.690476656E0,5.827482939E-1,3.012768463E0
3.528511270E0,1.204590797E0,2.735679388E0,5.998520255E-1,3.048737961E0
3.530913927E0,1.185043693E0,2.777217150E0,6.169557571E-1,3.081866002E0
3.533315854E0,1.150836229E0,2.810202837E0,6.328377724E-1,3.101958681E0
3.535718666E0,1.111742020E0,2.834636688E0,6.487197876E-1,3.113193350E0
3.538122156E0,1.068982720E0,2.854183912E0,6.633801460E-1,3.119160637E0
3.540524812E0,1.018893242E0,2.867622375E0,6.768187881E-1,3.117608891E0
3.542926791E0,9.626953006E-1,2.873730898E0,6.865923405E-1,3.107494257E0
3.545329500E0,8.979454637E-1,2.873730898E0,6.927008033E-1,3.089412522E0
3.547733041E0,8.307522535E-1,2.876174212E0,6.890357137E-1,3.072018492E0
3.550135750E0,7.598940134E-1,2.900608301E0,6.694886088E-1,3.072325247E0
3.552537677E0,6.865923405E-1,2.927485466E0,6.377245188E-1,3.073804281E0
3.554940385E0,6.071822047E-1,2.939702511E0,6.010736823E-1,3.061341316E0
3.557343979E0,5.326588154E-1,2.932372332E0,5.583143830E-1,3.032201816E0
3.559746635E0,4.605788291E-1,2.907938480E0,5.155550838E-1,2.988985799E0
3.562148562E0,3.884988427E-1,2.871287584E0,4.703523815E-1,2.935379891E0
3.564551375E0,3.237490356E-1,2.822419643E0,4.239279926E-1,2.872382465E0
3.566954864E0,2.589992285E-1,2.765000105E0,3.762819171E-1,2.802480020E0
3.569357520E0,2.003578991E-1,2.705137014E0,3.249707520E-1,2.731943547E0
3.571759500E0,1.563768983E-1,2.645274162E0,2.602209449E-1,2.662638554E0
3.574162208E0,1.185043678E-1,2.575637579E0,1.856975704E-1,2.585040776E0
3.576565750E0,9.651386738E-2,2.504779100E0,1.111742035E-1,2.509102025E0
3.578968458E0,8.185353130E-2,2.430255890E0,3.665083647E-2,2.431910149E0
3.581370385E0,7.085828483E-2,2.360619307E0,-3.054236248E-2,2.361880023E0
3.583773093E0,6.474980712E-2,2.294647694E0,-8.796200156E-2,2.297245718E0
3.586176687E0,5.741964281E-2,2.236006498E0,-1.331647038E-1,2.240704111E0
3.588579343E0,4.764608666E-2,2.185916901E0,-1.661504507E-1,2.192740025E0
3.590981270E0,3.542914242E-2,2.141935825E0,-1.918060333E-1,2.150798423E0
3.593384083E0,2.809897438E-2,2.099176645E0,-2.113531530E-1,2.109976847E0
3.595787572E0,2.076880634E-2,2.051530600E0,-2.260134816E-1,2.064047296E0
3.598190229E0,1.710372418E-2,2.005106211E0,-2.357870489E-1,2.018994548E0
3.600592208E0,1.588202827E-2,1.956238389E0,-2.431172132E-1,1.971351529E0
3.602994916E0,1.588202827E-2,1.898818731E0,-2.455606014E-1,1.914697058E0
3.605398458E0,1.588202827E-2,1.830403805E0,-2.431172132E-1,1.846547131E0
3.607801166E0,1.954711229E-2,1.753437042E0,-2.370087355E-1,1.769490517E0
3.610203093E0,1.954711229E-2,1.672805190E0,-2.296785712E-1,1.688612312E0
3.612605802E0,2.321219631E-2,1.587286592E0,-2.174616307E-1,1.602281839E0
3.615009395E0,2.809897438E-2,1.496881247E0,-2.028012872E-1,1.510818116E0
3.617412052E0,3.176405653E-2,1.408919215E0,-1.820324808E-1,1.420984917E0
3.619813979E0,3.054236248E-2,1.322178841E0,-1.600419879E-1,1.332179853E0
3.622216791E0,3.665083647E-2,1.240325332E0,-1.331647038E-1,1.247991607E0
3.624620281E0,4.031591862E-2,1.162136912E0,-1.050657257E-1,1.167572860E0
3.627022937E0,4.398100078E-2,1.090056896E0,-7.452336699E-2,1.093486213E0
3.629424916E0,4.886778072E-2,1.019198656E0,-4.153761268E-2,1.021214637E0
3.631827625E0,5.619794875E-2,9.544488192E-1,-9.773556143E-3,9.561518082E-1
3.634231166E0,5.741964281E-2,8.933641315E-1,2.199050039E-2,8.954775647E-1
3.636633875E0,6.474980712E-2,8.359444737E-1,5.253286287E-2,8.400924963E-1
3.639035802E0,6.963659078E-2,7.895200849E-1,8.307522535E-2,7.969270432E-1
3.641438510E0,7.452336699E-2,7.504258752E-1,1.172826737E-1,7.631827775E-1
3.643842104E0,8.063183725E-2,7.186617851E-1,1.539335102E-1,7.393725584E-1
3.646244760E0,8.429691941E-2,6.868977547E-1,1.893626451E-1,7.174905626E-1
3.648646687E0,9.040539712E-2,6.624638438E-1,2.260134816E-1,7.057716161E-1
3.651049500E0,9.529217333E-2,6.404733658E-1,2.614426315E-1,6.983115208E-1
3.653452989E0,1.014006436E-1,6.258130074E-1,2.956500649E-1,6.995233889E-1
3.655855645E0,1.075091213E-1,6.233696342E-1,3.261924386E-1,7.117228526E-1
3.658257625E0,1.294996142E-1,7.003363967E-1,3.347443044E-1,7.869529643E-1
3.660660333E0,1.685938388E-1,8.774821162E-1,3.176405728E-1,9.483112781E-1
3.663063875E0,1.966928244E-1,1.037524104E0,2.993151546E-1,1.097603706E0
3.665466583E0,1.893626451E-1,1.072953224E0,2.846548259E-1,1.126106213E0
3.667868510E0,1.453816444E-1,9.715525508E-1,2.736595869E-1,1.019774363E0
3.670271218E0,1.001789495E-1,8.689302206E-1,2.602209449E-1,9.125735534E-1
3.672674812E0,7.696675509E-2,8.640434742E-1,2.467822880E-1,9.018849729E-1
3.675077468E0,7.207997888E-2,9.300149679E-1,2.406738251E-1,9.633520924E-1
3.677479395E0,7.207997888E-2,1.014311910E0,2.455606014E-1,1.046099509E0
3.679882208E0,6.841489673E-2,1.077839971E0,2.602209449E-1,1.110916082E0
3.682285697E0,5.986303091E-2,1.104717255E0,2.785463631E-1,1.140864528E0
3.684688354E0,4.275930673E-2,1.099830508E0,2.968717813E-1,1.139994895E0
3.687090281E0,2.932066843E-2,1.077839971E0,3.017585576E-1,1.119668224E0
3.689493093E0,1.954711229E-2,1.065623045E0,3.042019308E-1,1.108365183E0
3.691896583E0,1.710372418E-2,1.063179612E0,3.090887070E-1,1.107329786E0
3.694299239E0,1.588202827E-2,1.063179612E0,3.151971996E-1,1.109032191E0
3.696701218E0,1.099525020E-2,1.064401388E0,3.237490356E-1,1.112602646E0
3.699103927E0,-0.000000000E0,1.054627776E0,3.347443044E-1,1.106477969E0
3.701507520E0,-1.588202827E-2,1.038745761E0,3.445178568E-1,1.094503334E0
3.703910177E0,-3.054236248E-2,1.016755223E0,3.506263196E-1,1.075947413E0
3.706312104E0,-5.008947477E-2,9.923213720E-1,3.506263196E-1,1.053636311E0
3.708714812E0,-7.085828483E-2,9.703308940E-1,3.432961702E-1,1.031704997E0
3.711118406E0,-9.407047927E-2,9.556705356E-1,3.335226178E-1,1.016559277E0
3.713521062E0,-1.221694499E-1,9.422318935E-1,3.213056624E-1,1.002977390E0
3.715922989E0,-1.539335102E-1,9.336800575E-1,3.066453338E-1,9.947287751E-1
3.718325802E0,-1.942494214E-1,9.300149679E-1,2.919849753E-1,9.939395877E-1
3.720729291E0,-2.370087355E-1,9.300149679E-1,2.773246467E-1,9.990044749E-1
3.723131947E0,-2.773246467E-1,9.349017143E-1,2.614426315E-1,1.009605084E0
3.725533927E0,-3.200839758E-1,9.422318935E-1,2.443388999E-1,1.024673700E0
3.727936635E0,-3.628432751E-1,9.544488192E-1,2.296785712E-1,1.046604050E0
3.730340177E0,-4.007157981E-1,9.666658044E-1,2.137965411E-1,1.068047232E0
3.732742885E0,-4.324798584E-1,9.752176404E-1,2.003578991E-1,1.085463754E0
3.735144812E0,-4.593571424E-1,9.776610136E-1,1.869192570E-1,1.096252184E0
3.737547520E0,-4.862344265E-1,9.752176404E-1,1.759240031E-1,1.103821824E0
3.739951114E0,-5.057815313E-1,9.691091776E-1,1.661504507E-1,1.105709513E0
3.742353770E0,-5.179984570E-1,9.556705356E-1,1.600419879E-1,1.098745654E0
3.744755697E0,-5.265503526E-1,9.361234307E-1,1.575985998E-1,1.085550400E0
3.747158510E0,-5.289937258E-1,9.116895199E-1,1.588202864E-1,1.065943726E0
3.749562000E0,-5.277720094E-1,8.848122358E-1,1.612636745E-1,1.042804852E0
3.751964708E0,-5.204418898E-1,8.542698622E-1,1.673721522E-1,1.014223937E0
3.754366635E0,-5.118899941E-1,8.176190853E-1,1.734806150E-1,9.801162475E-1
3.756769343E0,-5.033381581E-1,7.748597264E-1,1.795890927E-1,9.412805848E-1
3.759172937E0,-4.898995161E-1,7.247702479E-1,1.869192570E-1,8.945570171E-1
3.761575593E0,-4.752391577E-1,6.661289334E-1,1.954711229E-1,8.413019510E-1
3.763977520E0,-4.593571424E-1,6.038225293E-1,2.003578991E-1,7.846998910E-1
3.766380229E0,-4.446968138E-1,5.415160656E-1,2.052446753E-1,7.301508627E-1
3.768783822E0,-4.300364852E-1,4.828747511E-1,2.125748396E-1,6.806522359E-1
3.771186479E0,-4.153761268E-1,4.315635860E-1,2.199050188E-1,6.380773250E-1
3.773588406E0,-4.031592011E-1,3.888042867E-1,2.247917950E-1,6.035208911E-1
3.775991218E0,-3.897205591E-1,3.558185399E-1,2.309002578E-1,5.760241979E-1
3.778394708E0,-3.799470067E-1,3.277195692E-1,2.345653474E-1,5.538779163E-1
3.780797364E0,-3.726168275E-1,3.081724346E-1,2.345653474E-1,5.374332068E-1
3.783199343E0,-3.628432751E-1,2.922904193E-1,2.357870489E-1,5.221919800E-1
3.785602052E0,-3.518480062E-1,2.812951505E-1,2.357870489E-1,5.084481425E-1
3.788005593E0,-3.432961702E-1,2.764083743E-1,2.333436459E-1,4.987014207E-1
3.790408302E0,-3.359659910E-1,2.739650011E-1,2.321219593E-1,4.917423847E-1
3.792810229E0,-3.274141252E-1,2.764083743E-1,2.284568697E-1,4.855863879E-1
3.795212937E0,-3.176405728E-1,2.861819267E-1,2.235700935E-1,4.824719840E-1
3.797616531E0,-3.127537966E-1,2.996205688E-1,2.186833173E-1,4.851904943E-1
3.800019187E0,-3.029802442E-1,3.167243004E-1,2.125748396E-1,4.871338350E-1
3.802421114E0,-2.956500649E-1,3.362714052E-1,2.028012872E-1,4.915442818E-1
3.804823927E0,-2.944283783E-1,3.558185399E-1,1.930277348E-1,5.005543024E-1
3.807227416E0,-2.932066917E-1,3.741439581E-1,1.808107942E-1,5.085729139E-1
3.809630072E0,-2.932066917E-1,3.900259733E-1,1.673721522E-1,5.158525577E-1
3.812032052E0,-3.029802442E-1,4.010212123E-1,1.539335102E-1,5.256525151E-1
3.814434760E0,-3.103103936E-1,4.071297050E-1,1.404948682E-1,5.308351392E-1
3.816838302E0,-3.286358118E-1,4.059080184E-1,1.270562261E-1,5.374998612E-1
3.819241010E0,-3.445178568E-1,4.010212123E-1,1.123958975E-1,5.405029178E-1
3.821642937E0,-3.689517379E-1,3.912476599E-1,1.001789495E-1,5.470246230E-1
3.824045645E0,-3.946073353E-1,3.717005551E-1,8.551861346E-2,5.488075118E-1
3.826449239E0,-4.227063060E-1,3.472666740E-1,7.452336699E-2,5.521127568E-1
3.828851895E0,-4.544703662E-1,3.167243004E-1,6.108472496E-2,5.573050689E-1
3.831253822E0,-4.825693369E-1,2.788517773E-1,4.764608666E-2,5.593761062E-1
3.833656635E0,-5.143333673E-1,2.409792393E-1,3.420744836E-2,5.690166571E-1
3.836060125E0,-5.497625470E-1,2.006633282E-1,2.321219631E-2,5.856990997E-1
3.838462781E0,-5.815265775E-1,1.640124917E-1,1.221694518E-2,6.043364224E-1
3.840864760E0,-6.145123243E-1,1.285833418E-1,3.665083554E-3,6.278315900E-1
3.843267468E0,-6.499415040E-1,9.437590092E-2,-6.108472589E-3,6.567861773E-1
3.845671010E0,-6.829272509E-1,6.261184067E-2,-1.710372418E-2,6.860046720E-1
3.848073718E0,-7.159129977E-1,3.573456407E-2,-2.565558441E-2,7.172632630E-1
3.850475645E0,-7.488987446E-1,1.130067464E-2,-3.665083647E-2,7.498802029E-1
3.852878354E0,-7.757760286E-1,-3.359660041E-3,-5.253286287E-2,7.775599241E-1
3.855281947E0,-7.867712975E-1,5.039490014E-2,-9.162709117E-2,7.936902697E-1
3.857684604E0,-7.794411182E-1,1.847812980E-1,-1.563768983E-1,8.161656200E-1
3.860086531E0,-7.806627750E-1,3.130592108E-1,-2.260134816E-1,8.709319903E-1
3.862489343E0,-7.904363275E-1,3.961344361E-1,-2.919849753E-1,9.311107910E-1
3.864892833E0,-8.209787011E-1,4.107947946E-1,-3.506263196E-1,9.826989401E-1
3.867295489E0,-8.674030900E-1,3.497100472E-1,-3.946073353E-1,1.015086295E0
3.869697468E0,-9.321529269E-1,2.165453583E-1,-4.275930822E-1,1.048158774E0
3.872100177E0,-9.956810474E-1,7.482878864E-2,-4.471401870E-1,1.094035851E0
3.874503718E0,-1.040883780E0,-5.803049076E-3,-4.569137394E-1,1.136768615E0
3.876906427E0,-1.071426034E0,-2.046338283E-2,-4.605788291E-1,1.166407028E0
3.879308354E0,-1.087308168E0,-4.581354558E-3,-4.605788291E-1,1.180844147E0
3.881711062E0,-1.095860004E0,4.062134400E-2,-4.727957845E-1,1.194192236E0
3.884114656E0,-1.094638348E0,1.041494608E-1,-4.935645759E-1,1.205274331E0
3.886517312E0,-1.089751482E0,1.493521482E-1,-5.118899941E-1,1.213217096E0
3.888919239E0,-1.099525094E0,1.517955512E-1,-5.289937258E-1,1.229565648E0
3.891322052E0,-1.115407109E0,1.090362370E-1,-5.375455618E-1,1.242971098E0
3.893725541E0,-1.144727707E0,1.007897966E-2,-5.363239050E-1,1.264178168E0
3.896128197E0,-1.186265349E0,-1.243074164E-1,-5.241069198E-1,1.302829949E0
3.898530177E0,-1.221694469E0,-2.611372173E-1,-5.033381581E-1,1.346877620E0
3.900932885E0,-1.248571754E0,-3.588727713E-1,-4.789042473E-1,1.384583102E0
3.903336427E0,-1.263232112E0,-4.028537571E-1,-4.508052766E-1,1.400454182E0
3.905739135E0,-1.264453769E0,-4.089622498E-1,-4.202629030E-1,1.393812887E0
3.908141062E0,-1.258345366E0,-3.918585181E-1,-3.933856487E-1,1.375404823E0
3.910543770E0,-1.238798261E0,-3.442124426E-1,-3.787252903E-1,1.340349276E0
3.912947312E0,-1.216807723E0,-2.929012477E-1,-3.677300513E-1,1.304468308E0
3.915350020E0,-1.193595529E0,-2.660239935E-1,-3.555130959E-1,1.273510350E0
3.917751947E0,-1.175270081E0,-2.709107697E-1,-3.420744538E-1,1.253661573E0
3.920154656E0,-1.158166409E0,-3.161134422E-1,-3.249707520E-1,1.243737564E0
3.922558250E0,-1.148392797E0,-3.930802047E-1,-3.029802442E-1,1.251045599E0
3.924960906E0,-1.141062737E0,-4.785988331E-1,-2.773246467E-1,1.268065444E0
3.927362885E0,-1.132510781E0,-5.457920432E-1,-2.443388999E-1,1.280691658E0
3.929765593E0,-1.117850542E0,-5.763344169E-1,-2.101314515E-1,1.275110357E0
3.932169135E0,-1.094638348E0,-5.738909841E-1,-1.759240031E-1,1.248412283E0
3.934571843E0,-1.062874198E0,-5.494571328E-1,-1.392731816E-1,1.204575328E0
3.936973770E0,-1.029888511E0,-5.213581324E-1,-1.026223376E-1,1.158885668E0
3.939376479E0,-9.956810474E-1,-4.957025647E-1,-6.841489673E-2,1.114352897E0
3.941780072E0,-9.602518678E-1,-4.785988331E-1,-3.176405653E-2,1.073382247E0
3.944182729E0,-9.272661209E-1,-4.676035643E-1,2.443389036E-3,1.038499650E0
