"Time (s)","Gyroscope x (rad/s)","Gyroscope y (rad/s)","Gyroscope z (rad/s)"
7.086219400E-2,2.791951418E0,1.383229733E0,-1.636586040E-1
7.594094400E-2,2.845214605E0,1.415720224E0,-1.471470147E-1
8.099563200E-2,2.997014523E0,1.535562396E0,-1.301027983E-1
8.602380900E-2,3.170652628E0,1.608000398E0,-1.215806827E-1
9.108464200E-2,3.291559935E0,1.572314024E0,-1.311680675E-1
9.616386100E-2,3.384770632E0,1.501474023E0,-1.540712267E-1
1.012003190E-1,3.463599920E0,1.457798123E0,-1.679196507E-1
1.063010480E-1,3.522722006E0,1.439156055E0,-1.796375513E-1
1.113130800E-1,3.573322296E0,1.413589716E0,-1.791049242E-1
1.163700070E-1,3.625520229E0,1.341151834E0,-1.689849198E-1
1.214442780E-1,3.670261145E0,1.194678068E0,-1.668543816E-1
1.264948510E-1,3.699555874E0,9.853537679E-1,-1.934859753E-1
1.315521420E-1,3.702751637E0,7.371473908E-1,-2.456838787E-1
1.366225070E-1,3.684642315E0,4.979957044E-1,-3.229154944E-1
1.416806840E-1,3.667598009E0,3.499240875E-1,-4.123976231E-1
1.467818300E-1,3.651086330E0,3.429998457E-1,-4.896292388E-1
1.517653190E-1,3.620726585E0,4.074482918E-1,-5.269135237E-1
1.568982880E-1,3.565332651E0,4.426019788E-1,-5.221198201E-1
1.619042260E-1,3.505145550E0,4.287535846E-1,-4.922924042E-1
1.669724030E-1,3.445490599E0,3.925346136E-1,-4.480839670E-1
1.720281320E-1,3.392760038E0,3.424672186E-1,-3.990818560E-1
1.771038090E-1,3.340029478E0,3.003893197E-1,-3.410249650E-1
1.821267260E-1,3.291559935E0,2.726924717E-1,-2.771091759E-1
1.872241210E-1,3.253210545E0,2.284840494E-1,-2.115954608E-1
1.922664650E-1,3.237764359E0,1.677640229E-1,-1.604628116E-1
1.972963090E-1,3.253210545E0,1.081092656E-1,-1.301027983E-1
2.023618300E-1,3.301147461E0,6.443345547E-2,-1.119933128E-1
2.074439130E-1,3.373052597E0,5.963977799E-2,-9.441646934E-2
2.124933920E-1,3.450816870E0,9.692399204E-2,-7.364382595E-2
2.175633400E-1,3.519526243E0,1.624377221E-1,-3.209855407E-2
2.225746420E-1,3.565865517E0,2.087766677E-1,3.874146938E-2
2.276646940E-1,3.583974838E0,2.002545595E-1,1.319520324E-1
2.327039650E-1,3.567995787E0,1.283492744E-1,2.411415428E-1
2.378053190E-1,3.530711651E0,5.311337765E-3,3.599184155E-1
2.428066730E-1,3.487568617E0,-1.454234421E-1,4.712384641E-1
2.479128190E-1,3.440164328E0,-2.945603430E-1,5.671121478E-1
2.529468820E-1,3.393825293E0,-4.090761840E-1,6.342237592E-1
2.580521420E-1,3.350682020E0,-4.687309265E-1,6.752364039E-1
2.630638090E-1,3.306473732E0,-4.825793505E-1,6.992048621E-1
2.681156840E-1,3.259602308E0,-4.793835580E-1,7.103900909E-1
2.731788610E-1,3.199947357E0,-4.628719687E-1,7.194448113E-1
2.782257360E-1,3.118454695E0,-4.506214559E-1,7.284995914E-1
2.832917260E-1,3.010863066E0,-4.729919732E-1,7.316953540E-1
2.883486530E-1,2.882498980E0,-5.550172925E-1,7.370216846E-1
2.934072980E-1,2.733894348E0,-6.759246588E-1,7.412827015E-1
2.985068300E-1,2.571441889E0,-8.122783899E-1,7.407500744E-1
3.035172980E-1,2.406858683E0,-9.427731633E-1,7.205100656E-1
3.086763090E-1,2.238014221E0,-1.075931191E0,6.853563786E-1
3.136389650E-1,2.077159643E0,-1.209089041E0,6.438111067E-1
3.187003710E-1,1.937610388E0,-1.325735331E0,6.027984619E-1
3.237529760E-1,1.831084013E0,-1.398173332E0,5.527310967E-1
3.288195380E-1,1.750656486E0,-1.406162858E0,4.909458160E-1
3.338680280E-1,1.702719808E0,-1.345442772E0,4.158447683E-1
3.390116730E-1,1.683012366E0,-1.207491040E0,3.199710250E-1
3.439831320E-1,1.680881858E0,-9.949710965E-1,2.150425762E-1
3.490559960E-1,1.686740756E0,-7.350467443E-1,1.133099198E-1
3.540998510E-1,1.686740756E0,-4.676656723E-1,4.406778887E-2
3.591287570E-1,1.670229197E0,-2.327750474E-1,3.021936119E-2
3.642154230E-1,1.627618670E0,-2.291814424E-2,7.442780584E-2
3.692644340E-1,1.550919771E0,1.549808681E-1,1.543225497E-1
3.743133920E-1,1.425218582E0,2.918672264E-1,2.544573247E-1
3.793587050E-1,1.247319579E0,3.754903972E-1,3.721689582E-1
3.845127150E-1,1.008167982E0,3.973283172E-1,4.909458160E-1
3.895645900E-1,7.258731127E-1,3.701640964E-1,5.665795207E-1
3.945380800E-1,4.334582090E-1,3.014546037E-1,5.873521566E-1
3.996117260E-1,1.548918188E-1,1.629703492E-1,5.516658425E-1
4.046502670E-1,-1.060977578E-1,-4.315815493E-2,4.728363454E-1
4.097580280E-1,-3.420536220E-1,-2.737877071E-1,3.428741992E-1
4.147662050E-1,-5.625631213E-1,-4.218593538E-1,1.660404503E-1
4.198392780E-1,-7.692242265E-1,-4.032172263E-1,-1.345644146E-2
4.248820900E-1,-9.604390264E-1,-2.626024485E-1,-1.657891273E-1
4.299618300E-1,-1.155382276E0,-1.070739627E-1,-2.797723114E-1
4.350075070E-1,-1.367902279E0,1.330081280E-2,-3.388944268E-1
4.400801110E-1,-1.583618283E0,1.246208549E-1,-3.426228762E-1
4.451484440E-1,-1.775365710E0,2.726924717E-1,-3.016102314E-1
4.502039650E-1,-1.920774102E0,4.655051529E-1,-2.307702005E-1
4.552281840E-1,-2.025702715E0,6.508610249E-1,-1.274396330E-1
4.602976630E-1,-2.089618444E0,7.818884850E-1,-1.505433861E-2
4.653425070E-1,-2.115717649E0,8.521958590E-1,8.348254114E-2
4.704214130E-1,-2.125837564E0,8.761643171E-1,1.436699182E-1
4.754604230E-1,-2.121043682E0,8.676421642E-1,1.628446579E-1
4.805507360E-1,-2.103467226E0,8.186400533E-1,1.687036157E-1
4.855931840E-1,-2.067248106E0,7.259621024E-1,1.601815075E-1
4.906943820E-1,-2.030496597E0,5.949347019E-1,1.239625514E-1
4.956950590E-1,-2.012387037E0,4.356777966E-1,6.537306309E-2
5.007974030E-1,-2.020376444E0,2.865408957E-1,4.120405763E-3
5.058295380E-1,-2.046475410E0,1.906671971E-1,-6.458909065E-2
5.108913090E-1,-2.078433514E0,1.587092876E-1,-1.317006946E-1
5.159559440E-1,-2.105597496E0,1.608398110E-1,-1.759091318E-1
5.209824550E-1,-2.130631208E0,1.714924425E-1,-1.892249286E-1
5.260599030E-1,-2.145012379E0,1.613724530E-1,-1.854965091E-1
5.311053710E-1,-2.148208141E0,9.745662659E-2,-1.647238582E-1
5.361636530E-1,-2.138088226E0,-3.037499078E-2,-1.348964870E-1
5.412322980E-1,-2.123174429E0,-1.848381907E-1,-1.013406739E-1
5.463120380E-1,-2.098673344E0,-3.195940554E-1,-7.417646050E-2
5.513477150E-1,-2.074172258E0,-3.978908956E-1,-4.647961259E-2
5.564075070E-1,-2.053399801E0,-4.202614427E-1,-1.825012825E-2
5.614892780E-1,-2.037953377E0,-4.309140742E-1,1.424040925E-2
5.665071940E-1,-2.025702715E0,-4.639372528E-1,4.193726182E-2
5.715811010E-1,-2.021974325E0,-5.156025290E-1,6.270989776E-2
5.766140170E-1,-2.027300835E0,-5.720614791E-1,7.762359828E-2
5.817001630E-1,-2.043279648E0,-6.263898611E-1,8.827622980E-2
5.867645380E-1,-2.066182613E0,-6.791204214E-1,8.987411857E-2
5.918129230E-1,-2.091216326E0,-7.089478374E-1,8.241727948E-2
5.968981840E-1,-2.123707056E0,-6.897730827E-1,6.856885552E-2
6.019285480E-1,-2.159926176E0,-6.274551153E-1,4.832884297E-2
6.069971420E-1,-2.183894396E0,-5.555498600E-1,3.181725740E-2
6.120372460E-1,-2.202003956E0,-4.863077700E-1,2.489304356E-2
6.171179760E-1,-2.213189363E0,-4.154677391E-1,3.075199202E-2
6.221522460E-1,-2.215852261E0,-3.638024926E-1,5.418779328E-2
6.272177150E-1,-2.225439787E0,-3.398340344E-1,9.946149588E-2
6.322716210E-1,-2.232896566E0,-3.148003519E-1,1.516593993E-1
6.373406320E-1,-2.243016481E0,-2.812445760E-1,1.995962560E-1
6.423834960E-1,-2.251538754E0,-2.684614062E-1,2.363478541E-1
6.474454230E-1,-2.262723923E0,-2.897666693E-1,2.635120451E-1
6.524966730E-1,-2.280300856E0,-3.243877292E-1,2.826867998E-1
6.575559960E-1,-2.309595585E0,-3.606067002E-1,2.906762958E-1
6.626142260E-1,-2.354336500E0,-4.037498534E-1,3.018615544E-1
6.676929230E-1,-2.411328077E0,-4.586109221E-1,3.247646987E-1
6.727294860E-1,-2.477374554E0,-5.475603938E-1,3.625815809E-1
6.777887570E-1,-2.549812317E0,-6.855120063E-1,4.163773656E-1
6.828401630E-1,-2.619587183E0,-8.586173654E-1,4.728363454E-1
6.879055280E-1,-2.692025185E0,-1.017874241E0,5.223711133E-1
6.929653710E-1,-2.754343033E0,-1.125465870E0,5.665795207E-1
6.980323510E-1,-2.802279949E0,-1.151564837E0,5.958742499E-1
7.030757880E-1,-2.840629578E0,-1.069539547E0,6.182448268E-1
7.081255280E-1,-2.859803915E0,-8.943036199E-1,6.443437338E-1
7.131902670E-1,-2.864597797E0,-6.892404556E-1,6.848237514E-1
7.182712570E-1,-2.868859053E0,-5.374403596E-1,7.593922019E-1
7.233056840E-1,-2.885370493E0,-4.767203927E-1,8.675163984E-1
7.283461530E-1,-2.928513527E0,-4.895035625E-1,9.937501550E-1
7.334206320E-1,-2.993494749E0,-5.315814018E-1,1.106668234E0
7.385271940E-1,-3.063269377E0,-5.832467079E-1,1.176442981E0
7.435347460E-1,-3.115467310E0,-6.205309629E-1,1.212661982E0
7.485778710E-1,-3.145294666E0,-6.540867090E-1,1.218520880E0
7.536529760E-1,-3.159143209E0,-7.126762867E-1,1.222781897E0
7.588034440E-1,-3.174057007E0,-7.893752456E-1,1.238760948E0
7.637659960E-1,-3.202818871E0,-8.735309839E-1,1.259000897E0
7.688164650E-1,-3.244896889E0,-9.523605108E-1,1.278175592E0
7.738816730E-1,-3.282713652E0,-9.933731556E-1,1.308535695E0
7.790233920E-1,-3.302421093E0,-9.939058423E-1,1.334634542E0
7.839979230E-1,-3.309345245E0,-9.726005197E-1,1.334102035E0
7.890799550E-1,-3.293899059E0,-9.449036717E-1,1.308002949E0
7.941136530E-1,-3.266202211E0,-8.980321288E-1,1.252076745E0
7.991811010E-1,-3.201220989E0,-8.389099836E-1,1.177508235E0
8.042254760E-1,-3.096292496E0,-7.984299064E-1,1.089623928E0
8.092842780E-1,-2.958340883E0,-7.142741680E-1,9.889565110E-1
8.143436010E-1,-2.809204102E0,-5.576804280E-1,8.973438144E-1
8.194198510E-1,-2.648349285E0,-4.037498534E-1,8.265038133E-1
8.244594860E-1,-2.498679638E0,-2.769834995E-1,7.530006170E-1
8.295347980E-1,-2.362325907E0,-1.582065970E-1,6.704427004E-1
8.345753190E-1,-2.219048262E0,-3.729920089E-2,5.623185039E-1
8.396348510E-1,-2.083227158E0,1.081092656E-1,4.419437051E-1
8.446861530E-1,-1.964982510E0,2.689640522E-1,3.348847330E-1
8.497637050E-1,-1.862717271E0,4.058504105E-1,2.597836554E-1
8.548046940E-1,-1.778028727E0,4.457978010E-1,2.043899447E-1
8.598632880E-1,-1.690677166E0,3.877409399E-1,1.399414986E-1
8.649205800E-1,-1.580955029E0,3.211619556E-1,6.430780143E-2
8.699804760E-1,-1.445133924E0,2.774861455E-1,-1.205911743E-3
8.750350590E-1,-1.284279108E0,2.673661411E-1,-5.180592835E-2
8.801097460E-1,-1.115434885E0,3.211619556E-1,-8.482909203E-2
8.851537050E-1,-9.199590087E-1,4.276883304E-1,-8.056803793E-2
8.902079760E-1,-6.983842254E-1,6.039894223E-1,-2.091328613E-2
8.952642260E-1,-4.677547216E-1,8.335537314E-1,7.176464051E-2
9.003650590E-1,-2.333967388E-1,1.057259083E0,1.591162384E-1
9.053807360E-1,-2.300719544E-2,1.221842289E0,2.235646844E-1
9.104289130E-1,1.506307572E-1,1.275638103E0,2.491310090E-1
9.154954760E-1,3.125508130E-1,1.256463408E0,2.422067970E-1
9.205832360E-1,4.766013622E-1,1.214385509E0,2.299562693E-1
9.256153710E-1,6.550330520E-1,1.168046474E0,2.251625806E-1
9.306669860E-1,8.515741825E-1,1.107859135E0,2.214341611E-1
9.357255800E-1,1.064626932E0,1.052998066E0,2.145099491E-1
9.407969340E-1,1.262233377E0,9.976043701E-1,2.043899447E-1
9.458435480E-1,1.437469125E0,9.070569277E-1,1.793562472E-1
9.509007880E-1,1.604715466E0,7.472674251E-1,1.111793965E-1
9.559641730E-1,1.789005995E0,5.363452435E-1,-1.079328358E-2
9.610153710E-1,2.002591133E0,3.248903751E-1,-1.769744009E-1
9.660748510E-1,2.218307018E0,1.826777160E-1,-3.436881304E-1
9.711106320E-1,2.388216496E0,8.147767186E-2,-4.784439802E-1
9.761786530E-1,2.500069380E0,2.927976660E-2,-5.620672107E-1
9.812579230E-1,2.558126211E0,3.886714205E-2,-6.068082452E-1
9.863243300E-1,2.580496550E0,1.443282366E-1,-6.291787624E-1
9.913668820E-1,2.577833414E0,2.678987682E-1,-6.387661695E-1
9.964142780E-1,2.557593346E0,3.717619777E-1,-6.392987967E-1
1.001448444E0,2.523504972E0,4.979957044E-1,-6.201240420E-1
1.006526726E0,2.503797531E0,6.487305164E-1,-5.849703550E-1
1.011599590E0,2.510721922E0,7.984000444E-1,-5.476861000E-1
1.016658184E0,2.558658600E0,9.491348267E-1,-5.077387094E-1
1.021692611E0,2.635357618E0,1.079629660E0,-4.779113531E-1
1.026800215E0,2.738688231E0,1.154730678E0,-4.688566029E-1
1.031826153E0,2.867052317E0,1.143012762E0,-4.864334464E-1
1.036907507E0,3.007667303E0,1.058856964E0,-5.359681845E-1
1.041942663E0,3.144021034E0,9.336885214E-1,-6.004166603E-1
1.047019538E0,3.295288563E0,7.877474427E-1,-6.723219752E-1
1.052066934E0,3.471589565E0,6.700357795E-1,-7.431619763E-1
1.057114538E0,3.644694805E0,5.885431767E-1,-8.102735877E-1
1.062167559E0,3.777852774E0,4.985283315E-1,-8.661999106E-1
1.067257871E0,3.855617046E0,3.621746004E-1,-9.082778096E-1
1.072281517E0,3.880650759E0,1.635029763E-1,-9.301156998E-1
1.077356986E0,3.885444403E0,-6.286553293E-2,-9.397031069E-1
1.082383184E0,3.868400335E0,-2.386340052E-1,-9.642041922E-1
1.087442403E0,3.848692894E0,-3.062782586E-1,-1.011608243E0
1.092512507E0,3.841768742E0,-2.578087449E-1,-1.068067193E0
1.097571517E0,3.837507486E0,-1.022802815E-1,-1.114406228E0
1.102626465E0,3.834844351E0,1.358061284E-1,-1.142635703E0
1.107672038E0,3.841768742E0,3.946651220E-1,-1.130385160E0
1.112743236E0,3.860410929E0,5.683031082E-1,-1.052088380E0
1.117773601E0,3.875324488E0,5.954673290E-1,-9.152020216E-1
1.122858288E0,3.872661352E0,4.814841449E-1,-7.389009595E-1
1.127925684E0,3.855084419E0,2.790840566E-1,-5.567408204E-1
1.132975892E0,3.831115961E0,4.951977357E-2,-3.905597329E-1
1.138037455E0,3.809278011E0,-1.715223938E-1,-2.504775822E-1
1.143089121E0,3.801821232E0,-3.691287935E-1,-1.540712267E-1
1.148145476E0,3.807680130E0,-5.092108846E-1,-9.867752343E-2
1.153201778E0,3.832713842E0,-5.571477413E-1,-6.458909065E-2
1.158276101E0,3.871063471E0,-5.150698423E-1,-4.701224342E-2
1.163321257E0,3.907814980E0,-4.223919511E-1,-3.689223900E-2
1.168349798E0,3.934979200E0,-3.004193008E-1,-2.304381505E-2
1.173436101E0,3.931783438E0,-1.773813516E-1,2.222988382E-2
1.178477976E0,3.886509657E0,-1.209223941E-1,9.413518012E-2
1.183546517E0,3.795962334E0,-1.491518617E-1,1.804215014E-1
1.188611569E0,3.667598009E0,-2.498192787E-1,2.741647065E-1
1.193662976E0,3.520059109E0,-3.994888067E-1,3.668426275E-1
1.198794434E0,3.361867428E0,-5.198635459E-1,4.525963366E-1
1.203780996E0,3.204741240E0,-5.827140808E-1,5.356869102E-1
1.208831413E0,3.058267355E0,-5.923014283E-1,5.932111144E-1
1.213888601E0,2.926707268E0,-5.757898688E-1,6.113205552E-1
1.218962246E0,2.796212673E0,-5.699309111E-1,5.846889615E-1
1.224011778E0,2.649206161E0,-6.162698865E-1,5.314257741E-1
1.229080371E0,2.488351345E0,-7.254593968E-1,4.834889770E-1
1.234124642E0,2.311517477E0,-8.644763231E-1,4.584552944E-1
1.239162403E0,2.117107153E0,-9.843184352E-1,4.509984553E-1
1.244242767E0,1.921631455E0,-1.072202682E0,4.435415864E-1
1.249303392E0,1.736808181E0,-1.123335361E0,4.307584465E-1
1.254355267E0,1.577018619E0,-1.131857395E0,4.126489460E-1
1.259452663E0,1.451850176E0,-1.105758429E0,3.945394754E-1
1.264471726E0,1.347454429E0,-1.042907953E0,3.620489538E-1
1.269541986E0,1.245189071E0,-9.113479257E-1,3.050573468E-1
1.274583705E0,1.132803798E0,-6.966972351E-1,2.198362499E-1
1.279650892E0,1.007635355E0,-4.175983071E-1,1.053204387E-1
1.284701361E0,8.569005132E-1,-8.843185753E-2,-1.878276095E-2
1.289772403E0,6.790015101E-1,2.199619412E-1,-1.034712046E-1
1.294817246E0,4.867213964E-1,4.127746224E-1,-1.066669896E-1
1.299885163E0,2.816581726E-1,4.665704370E-1,-6.532229483E-3
1.304933236E0,6.381177902E-2,4.047851562E-1,1.516593993E-1
1.310008496E0,-1.598935425E-1,2.865408957E-1,2.917415500E-1
1.315049538E0,-3.750768006E-1,1.475240141E-1,3.492657840E-1
1.320106361E0,-5.513778329E-1,2.874713577E-2,3.066552281E-1
1.325166673E0,-6.919926405E-1,-3.729920089E-2,1.745625585E-1
1.330239278E0,-8.091716170E-1,-4.049499705E-2,-1.984802447E-2
1.335278340E0,-9.268832803E-1,6.909233052E-3,-1.876270324E-1
1.340358913E0,-1.059508443E0,6.549872458E-2,-2.797723114E-1
1.345395059E0,-1.216634989E0,1.102397889E-1,-3.394270837E-1
1.350468392E0,-1.388142228E0,1.507198215E-1,-3.980165720E-1
1.355508965E0,-1.554323435E0,1.896019280E-1,-4.305071235E-1
1.360593705E0,-1.698133945E0,2.146356255E-1,-4.422250092E-1
1.365628392E0,-1.819041491E0,2.375387847E-1,-4.459534287E-1
1.370676361E0,-1.922371984E0,2.753556371E-1,-4.534102678E-1
1.375737298E0,-2.011321783E0,3.318146169E-1,-4.656608105E-1
1.380818757E0,-2.080031395E0,4.090462029E-1,-4.731176496E-1
1.385855632E0,-2.137022734E0,4.868104160E-1,-4.704544842E-1
1.390998809E0,-2.179100752E0,5.411389470E-1,-4.480839670E-1
1.396042871E0,-2.201471329E0,5.432693958E-1,-4.076039493E-1
1.401086934E0,-2.218515396E0,4.804188609E-1,-3.511449993E-1
1.406130944E0,-2.233961821E0,3.824146092E-1,-2.893596888E-1
1.411175007E0,-2.242483854E0,2.934651077E-1,-2.350312471E-1
1.416219069E0,-2.231298685E0,2.439303845E-1,-1.902901977E-1
1.421253601E0,-2.183894396E0,2.252882570E-1,-1.604628116E-1
1.426297611E0,-2.108793259E0,2.103745788E-1,-1.428859532E-1
1.431341726E0,-2.011321783E0,1.512524486E-1,-1.226459444E-1
1.436385736E0,-1.897338271E0,1.596397348E-2,-9.654699266E-2
1.441429851E0,-1.788681507E0,-1.693918705E-1,-7.524172217E-2
1.446473913E0,-1.694405556E0,-3.281161487E-1,-6.831750274E-2
1.451613496E0,-1.615043402E0,-4.197288156E-1,-7.630698383E-2
1.456657507E0,-1.550062418E0,-4.287835360E-1,-9.228593856E-2
1.461701621E0,-1.495733976E0,-4.000214338E-1,-1.199827865E-1
1.466745632E0,-1.464841247E0,-4.197288156E-1,-1.625933349E-1
1.471789642E0,-1.468569756E0,-5.283856988E-1,-2.286396772E-1
1.476833757E0,-1.506386518E0,-7.217309475E-1,-3.197197020E-1
1.481952923E0,-1.561780334E0,-9.145436883E-1,-4.251807928E-1
1.486996934E0,-1.626228690E0,-1.032787919E0,-5.354356170E-1
1.492041048E0,-1.686948776E0,-1.063680530E0,-6.323745847E-1
1.497085059E0,-1.738614082E0,-1.040244699E0,-7.010840178E-1
1.502129121E0,-1.790812016E0,-1.014145851E0,-7.516840696E-1
1.507173184E0,-1.843009830E0,-1.024265766E0,-7.815114856E-1
1.512338705E0,-1.894142509E0,-1.078061700E0,-7.868377566E-1
1.517382715E0,-1.938883662E0,-1.155825853E0,-7.660651207E-1
1.522426830E0,-1.977233052E0,-1.226665854E0,-7.229219675E-1
1.527470840E0,-1.992146850E0,-1.236785889E0,-6.685935259E-1
1.532514903E0,-1.977765679E0,-1.156358480E0,-5.982861519E-1
1.537558965E0,-1.926100373E0,-9.965689778E-1,-5.199892521E-1
1.542654694E0,-1.855260372E0,-7.957667708E-1,-4.443555176E-1
1.547698705E0,-1.781757116E0,-6.354446411E-1,-3.783091903E-1
1.552742819E0,-1.726896167E0,-5.635393858E-1,-3.234481215E-1
1.557786830E0,-1.715178132E0,-5.795183182E-1,-2.792396843E-1
1.562830892E0,-1.763115048E0,-6.402383447E-1,-2.515428364E-1
1.567874955E0,-1.863782525E0,-6.881751418E-1,-2.504775822E-1
1.572975007E0,-1.991081476E0,-7.281225324E-1,-2.691196799E-1
1.578019069E0,-2.130631208E0,-7.931036353E-1,-2.957512736E-1
1.583063132E0,-2.272311449E0,-9.022931457E-1,-3.207849860E-1
1.588107194E0,-2.411328077E0,-1.070604682E0,-3.223828673E-1
1.593151257E0,-2.549279928E0,-1.281526923E0,-3.048059940E-1
1.598195267E0,-2.686166048E0,-1.456762791E0,-2.653912604E-1
1.603308444E0,-2.808671474E0,-1.495644927E0,-2.110628188E-1
1.608352507E0,-2.909871340E0,-1.378465891E0,-1.450164914E-1
1.613396569E0,-2.980711460E0,-1.211752176E0,-6.139329821E-2
1.618440632E0,-3.015865326E0,-1.106291175E0,5.205726624E-2
1.623484694E0,-2.996690512E0,-1.054093122E0,1.995962560E-1
1.628528705E0,-2.935970545E0,-9.832531810E-1,3.625815809E-1
1.633676569E0,-2.860869408E0,-8.607478738E-1,5.154468417E-1
1.638720580E0,-2.780441999E0,-6.711309552E-1,6.336910725E-1
1.643764694E0,-2.704808235E0,-3.872382641E-1,7.146511078E-1
1.648808705E0,-2.648881912E0,-5.221289024E-2,7.705774307E-1
1.653852767E0,-2.630239725E0,2.354082614E-1,7.945458889E-1
1.658896830E0,-2.653675556E0,4.047851562E-1,8.147858977E-1
1.664023340E0,-2.731972456E0,4.181009531E-1,8.430153728E-1
1.669067351E0,-2.848086357E0,2.982587814E-1,8.893543482E-1
1.674111465E0,-2.981776714E0,1.134355813E-1,9.490091205E-1
1.679155476E0,-3.113336802E0,-1.118676513E-1,9.862933159E-1
1.684199538E0,-3.217732668E0,-3.329098225E-1,9.852280617E-1
1.689243601E0,-3.296562195E0,-4.958951473E-1,9.538028240E-1
1.694369069E0,-3.343433619E0,-6.013562083E-1,9.165185690E-1
1.699413132E0,-3.360477924E0,-6.242594123E-1,8.685817122E-1
1.704457194E0,-3.369532824E0,-5.848445892E-1,8.126553893E-1
1.709501205E0,-3.368999958E0,-5.108088255E-1,7.721753716E-1
1.714545267E0,-3.334911585E0,-3.893688023E-1,7.599248290E-1
1.719589330E0,-3.252886295E0,-1.965560913E-1,7.641859055E-1
1.724714069E0,-3.122924089E0,6.549872458E-2,7.806974649E-1
1.729758080E0,-2.973787308E0,3.291514218E-1,7.993395925E-1
1.734802194E0,-2.828378677E0,5.155725479E-1,7.982742786E-1
1.739846205E0,-2.695753574E0,6.258273125E-1,7.902848721E-1
1.744890267E0,-2.567389250E0,6.774926186E-1,7.743058801E-1
1.749934330E0,-2.436361790E0,6.721663475E-1,7.439458370E-1
1.755058392E0,-2.289355516E0,6.465999484E-1,7.119879723E-1
1.760102403E0,-2.121043682E0,6.007936597E-1,6.560616493E-1
1.765146517E0,-1.942079425E0,5.656399727E-1,5.964068770E-1
1.770190580E0,-1.748201370E0,5.485957861E-1,5.282300711E-1
1.775234590E0,-1.516506553E0,5.453999639E-1,4.515310526E-1
1.780278653E0,-1.265104413E0,5.459325910E-1,3.764300048E-1
1.785402715E0,-9.971905947E-1,5.208989382E-1,2.853499651E-1
1.790446778E0,-7.170262933E-1,4.830819964E-1,1.814867705E-1
1.795490840E0,-4.576347172E-1,4.548525512E-1,7.762359828E-2
1.800534851E0,-2.419188470E-1,4.745599031E-1,-8.662756532E-3
1.805578913E0,-8.372721821E-2,5.613788962E-1,-6.458909065E-2
1.810622976E0,3.984335437E-2,6.998631358E-1,-8.909014612E-2
1.815752038E0,1.426412910E-1,8.069221973E-1,-9.388383478E-2
1.820796101E0,2.443739474E-1,8.521958590E-1,-9.281856567E-2
1.825840163E0,3.514329195E-1,8.527284861E-1,-8.589435369E-2
1.830884173E0,4.670139849E-1,7.941389680E-1,-5.606698245E-2
1.835928236E0,5.820625424E-1,6.977326870E-1,-9.728019126E-3
1.840972298E0,6.811320186E-1,5.960000157E-1,4.832884297E-2
1.846116153E0,7.519720197E-1,5.059852600E-1,8.348254114E-2
1.851160215E0,8.158878684E-1,4.260904193E-1,7.123200595E-2
1.856204278E0,8.947173357E-1,3.605767190E-1,1.370777749E-2
1.861248392E0,9.879279137E-1,3.227598667E-1,-6.352382153E-2
1.866292403E0,1.105639577E0,3.014546037E-1,-1.423533261E-1
1.871336465E0,1.249450088E0,3.089114428E-1,-2.089322954E-1
1.876460215E0,1.398054361E0,3.813493252E-1,-2.472817898E-1
1.881504278E0,1.542930245E0,5.022567511E-1,-2.499449700E-1
1.886548288E0,1.678751230E0,6.268926263E-1,-2.313028276E-1
1.891592403E0,1.827355504E0,7.195705771E-1,-2.110628188E-1
1.896636413E0,1.988210320E0,7.866821289E-1,-1.929533333E-1
1.901680476E0,2.159184933E0,8.399453163E-1,-1.854965091E-1
1.906801673E0,2.314713240E0,8.607179523E-1,-1.860291362E-1
1.911845684E0,2.454795599E0,8.479348421E-1,-1.897575557E-1
1.916889746E0,2.574637651E0,8.282274008E-1,-1.956164986E-1
1.921933861E0,2.700871468E0,8.335537314E-1,-2.068017721E-1
1.926977871E0,2.838290453E0,8.719031811E-1,-2.275744230E-1
1.932021934E0,2.980503082E0,9.368842840E-1,-2.430207431E-1
1.937144746E0,3.121117830E0,1.002398014E0,-2.456838787E-1
1.942188809E0,3.249482155E0,1.037551761E0,-2.424881011E-1
1.947232871E0,3.353877783E0,1.044475913E0,-2.398249358E-1
1.952276934E0,3.442294836E0,1.031160116E0,-2.451512665E-1
1.957320944E0,3.501949549E0,9.699074626E-1,-2.600649297E-1
1.962365059E0,3.528581142E0,8.505979776E-1,-2.968165278E-1
1.967511309E0,3.524852753E0,7.190378904E-1,-3.474165797E-1
1.972555423E0,3.497688293E0,6.183704734E-1,-4.006797075E-1
1.977599486E0,3.461469650E0,5.613788962E-1,-4.523450136E-1
1.982643548E0,3.415130615E0,5.134420991E-1,-4.938902855E-1
1.987687559E0,3.371454716E0,4.814841449E-1,-5.290440321E-1
1.992731621E0,3.334170580E0,4.745599031E-1,-5.546103716E-1
1.997853809E0,3.311267614E0,4.846799076E-1,-5.636650920E-1
2.002897871E0,3.292092800E0,4.910714924E-1,-5.562082529E-1
2.007941934E0,3.276646376E0,4.830819964E-1,-5.333050489E-1
2.012985996E0,3.262265205E0,4.644398987E-1,-4.986839592E-1
2.018030007E0,3.254808426E0,4.319493771E-1,-4.587365985E-1
2.023074121E0,3.261732578E0,4.010567367E-1,-4.230502546E-1
2.028180423E0,3.284103155E0,3.877409399E-1,-3.942881525E-1
2.033224434E0,3.319789410E0,3.973283172E-1,-3.665913045E-1
2.038268496E0,3.371454716E0,4.239599109E-1,-3.314375877E-1
2.043312559E0,3.426848650E0,4.639072716E-1,-2.904249728E-1
2.048356569E0,3.481709719E0,4.916041195E-1,-2.403575778E-1
2.053400684E0,3.536570787E0,4.820167422E-1,-1.711154431E-1
2.058499434E0,3.580246449E0,4.127746224E-1,-8.056803793E-2
2.063543496E0,3.612204313E0,2.934651077E-1,1.317514572E-2
2.068587559E0,3.624987364E0,1.453934908E-1,1.037225500E-1
2.073631621E0,3.614867687E0,-6.939192768E-3,1.894762516E-1
2.078675632E0,3.590898991E0,-1.139981821E-1,2.667078674E-1
2.083719746E0,3.568528414E0,-1.550108194E-1,3.316889405E-1
2.088903236E0,3.552016973E0,-1.337055415E-1,3.764300048E-1
2.093947246E0,3.538701057E0,-7.032237947E-2,4.062573910E-1
2.098991309E0,3.522722006E0,1.050283434E-3,4.302257895E-1
2.104035371E0,3.493427515E0,5.218293145E-2,4.563247561E-1
2.109079382E0,3.434305429E0,8.147767186E-2,4.856195152E-1
2.114123496E0,3.344290495E0,5.910714343E-2,5.117184520E-1
2.119277090E0,3.231905222E0,-1.652656496E-2,5.442090034E-1
2.124321101E0,3.101943016E0,-1.326402724E-1,5.798953176E-1
2.129365163E0,2.961861134E0,-2.892340422E-1,6.134511232E-1
2.134409226E0,2.829768181E0,-4.676656723E-1,6.390174031E-1
2.139453288E0,2.715785027E0,-6.359772682E-1,6.571269035E-1
2.144497351E0,2.627900839E0,-7.547541261E-1,6.555289626E-1
2.149541361E0,2.558126211E0,-8.410405517E-1,6.304953098E-1
2.154592246E0,2.499004126E0,-9.188047647E-1,5.900152922E-1
2.159636309E0,2.449469090E0,-9.731332064E-1,5.442090034E-1
2.164680371E0,2.388216496E0,-9.843184352E-1,4.920110703E-1
2.169724434E0,2.316843987E0,-9.443710446E-1,4.387479126E-1
2.174768496E0,2.237481833E0,-8.447689414E-1,3.940068483E-1
2.179812559E0,2.157054424E0,-6.998930573E-1,3.663100004E-1
2.184950163E0,2.068637609E0,-5.379730463E-1,3.572552502E-1
2.189994173E0,1.977557659E0,-3.733898699E-1,3.364826143E-1
2.195038288E0,1.856650352E0,-2.024150342E-1,3.029268086E-1
2.200082298E0,1.705915570E0,-5.700657889E-2,2.571204901E-1
2.205126361E0,1.524288177E0,4.366082326E-2,1.921394169E-1
2.210170423E0,1.298452139E0,1.075766310E-1,1.218320280E-1
2.215295059E0,1.040658474E0,1.405998170E-1,6.164463609E-2
2.220339069E0,7.610267997E-1,1.358061284E-1,1.477304101E-2
2.225383184E0,4.654161036E-1,1.049134731E-1,-1.345644146E-2
2.230427246E0,1.682076007E-1,6.922714412E-2,-3.529434279E-2
2.235471257E0,-1.156851202E-1,3.567134961E-2,-7.524172217E-2
2.240515319E0,-3.569673300E-1,4.246074241E-3,-1.428859532E-1
2.245640684E0,-5.396599174E-1,2.115546959E-3,-2.307702005E-1
2.250684746E0,-6.674916148E-1,7.402083278E-2,-2.989470661E-1
2.255728809E0,-7.623000145E-1,1.842756271E-1,-3.623302281E-1
2.260772819E0,-8.427274227E-1,2.881388068E-1,-4.129302800E-1
2.265816882E0,-9.162306190E-1,3.760230541E-1,-4.496818483E-1
2.270860944E0,-9.977232218E-1,4.244925380E-1,-4.683239758E-1
2.275986465E0,-1.088270664E0,4.175682962E-1,-4.613997638E-1
2.281030476E0,-1.181481242E0,3.488588333E-1,-4.246481657E-1
2.286074538E0,-1.290670753E0,2.332777381E-1,-3.697870672E-1
2.291118601E0,-1.406784534E0,9.053241462E-2,-3.048059940E-1
2.296162663E0,-1.527159214E0,-5.327815935E-2,-2.467491478E-1
2.301206726E0,-1.651795030E0,-1.576739699E-1,-2.126607150E-1
2.306325476E0,-1.762582421E0,-1.997518688E-1,-2.046712488E-1
2.311369590E0,-1.856858253E0,-1.938929260E-1,-1.977470219E-1
2.316413601E0,-1.930894136E0,-1.550108194E-1,-1.918880790E-1
2.321457663E0,-1.987353086E0,-9.855186194E-2,-1.828333437E-1
2.326501726E0,-2.019311190E0,-3.197288513E-2,-1.556691229E-1
2.331545788E0,-2.023039579E0,5.431345478E-2,-1.199827865E-1
2.336678965E0,-2.006528139E0,1.938629895E-1,-9.974278510E-2
2.341722976E0,-1.954862475E0,3.595114350E-1,-1.018733084E-1
2.346767038E0,-1.873369813E0,4.825493693E-1,-9.601435810E-2
2.351811153E0,-1.780691981E0,4.974630773E-1,-7.683961838E-2
2.356855163E0,-1.694938183E0,3.983935714E-1,-5.606698245E-2
2.361899226E0,-1.630489826E0,2.098419368E-1,-4.381645098E-2
2.367027663E0,-1.594270825E0,-7.471824531E-3,-5.659961328E-2
2.372071726E0,-1.579889774E0,-2.018823922E-1,-9.761225432E-2
2.377115736E0,-1.583085537E0,-3.728572130E-1,-1.535385847E-1
2.382159851E0,-1.605988741E0,-5.454298854E-1,-2.153238803E-1
2.387203861E0,-1.645936131E0,-7.180025578E-1,-2.669891715E-1
2.392247923E0,-1.702927709E0,-8.703352809E-1,-3.064039052E-1
2.397380580E0,-1.765245676E0,-9.832531810E-1,-3.309049606E-1
2.402435163E0,-1.832357287E0,-1.045571089E0,-3.410249650E-1
2.407489746E0,-1.903197169E0,-1.055158496E0,-3.447533846E-1
2.412544278E0,-1.972439408E0,-1.010949969E0,-3.447533846E-1
2.417598861E0,-2.028365850E0,-9.283921123E-1,-3.330354989E-1
2.422653444E0,-2.068845987E0,-8.378447294E-1,-3.122628629E-1
2.427719069E0,-2.086422920E0,-7.707331181E-1,-2.792396843E-1
2.432773653E0,-2.086422920E0,-7.558193803E-1,-2.307702005E-1
2.437828236E0,-2.067248106E0,-7.920383811E-1,-1.647238582E-1
2.442882767E0,-2.041149139E0,-8.389099836E-1,-8.589435369E-2
2.447937351E0,-2.009191275E0,-8.538236618E-1,-9.728019126E-3
2.452991934E0,-1.987885714E0,-8.266594410E-1,5.258989707E-2
2.458071621E0,-1.984157324E0,-7.664720416E-1,9.306991845E-2
2.463126205E0,-1.993211985E0,-6.966972351E-1,1.079836041E-1
2.468180736E0,-2.024637461E0,-6.413035989E-1,9.679833800E-2
2.473235319E0,-2.070976496E0,-6.173351407E-1,6.377515942E-2
2.478289903E0,-2.140751362E0,-6.221288443E-1,2.862146497E-2
2.483344486E0,-2.227570057E0,-6.546193957E-1,-8.130124770E-3
2.488417559E0,-2.332498550E0,-7.169373035E-1,-2.623960562E-2
2.493472142E0,-2.455536604E0,-7.915057540E-1,-2.304381505E-2
2.498526726E0,-2.587096691E0,-8.570194840E-1,7.316196803E-3
2.503581257E0,-2.705340862E0,-9.065542221E-1,7.069937885E-2
2.508635840E0,-2.796421051E0,-9.235984683E-1,1.676383466E-1
2.513690423E0,-2.861402035E0,-8.852489591E-1,2.853499651E-1
2.518753444E0,-2.890164137E0,-7.648741603E-1,4.014636874E-1
2.523808028E0,-2.884837627E0,-5.571477413E-1,5.058594942E-1
2.528862611E0,-2.852347136E0,-3.084087670E-1,6.006679535E-1
2.533917142E0,-2.810269356E0,-6.872447580E-2,6.949437857E-1
2.538971726E0,-2.771387339E0,1.235555708E-1,7.977417111E-1
2.544026309E0,-2.751147270E0,2.364735305E-1,9.117248654E-1
2.549103132E0,-2.751147270E0,2.556482553E-1,1.010261893E0
2.554157715E0,-2.754875660E0,2.114398330E-1,1.073645115E0
2.559212246E0,-2.758604050E0,1.682966650E-1,1.109331369E0
2.564266830E0,-2.771919966E0,1.342082322E-1,1.126908302E0
2.569321413E0,-2.783637762E0,7.348819822E-2,1.144484997E0
2.574375996E0,-2.803877831E0,-1.599393226E-2,1.157800794E0
2.579446673E0,-2.843825340E0,-9.801922739E-2,1.156735659E0
2.584501257E0,-2.896023035E0,-1.432929039E-1,1.153007150E0
2.589555840E0,-2.957808495E0,-1.619350314E-1,1.145017743E0
2.594610423E0,-3.019061089E0,-1.619350314E-1,1.133832455E0
2.599664955E0,-3.070726395E0,-1.416950226E-1,1.123712420E0
2.604719538E0,-3.110673666E0,-8.417080343E-2,1.116788268E0
2.609814694E0,-3.136240005E0,2.501871251E-2,1.100276709E0
2.614869226E0,-3.139968395E0,1.714924425E-1,1.082167149E0
2.619923809E0,-3.129848480E0,2.977261543E-1,1.070981860E0
2.624978340E0,-3.128250599E0,3.648377657E-1,1.058198810E0
2.630032976E0,-3.118130445E0,3.872083127E-1,1.051274419E0
2.635087507E0,-3.101086140E0,3.818819821E-1,1.040621877E0
2.640152351E0,-3.073922157E0,3.659030199E-1,1.036360741E0
2.645206934E0,-3.011604071E0,3.302167058E-1,1.027838707E0
2.650261517E0,-2.937568426E0,2.524524629E-1,9.969459772E-1
2.655316101E0,-2.849684238E0,1.544482410E-1,9.506070018E-1
2.660370632E0,-2.743157864E0,3.460608050E-2,8.893543482E-1
2.665425215E0,-2.631304979E0,-9.429080784E-2,8.009374738E-1
2.670521934E0,-2.506136656E0,-2.018823922E-1,6.901500821E-1
2.675576465E0,-2.359130144E0,-2.743203342E-1,5.655142069E-1
2.680631048E0,-2.196144819E0,-2.876361310E-1,4.382152557E-1
2.685685632E0,-2.033692122E0,-2.349055707E-1,3.375478685E-1
2.690740163E0,-1.862717271E0,-1.315750182E-1,2.736320794E-1
2.695794798E0,-1.663513064E0,1.489870716E-2,2.416741699E-1
2.700814694E0,-1.440340281E0,1.752208769E-1,2.288910002E-1
2.705869278E0,-1.195329666E0,3.083787858E-1,2.267604768E-1
2.710923809E0,-9.359380007E-1,3.983935714E-1,2.203688920E-1
2.715978392E0,-6.903946996E-1,4.463304281E-1,2.086510062E-1
2.721032976E0,-4.725484252E-1,4.607114792E-1,1.910741478E-1
2.726087559E0,-2.776051760E-1,4.196988344E-1,1.612467617E-1
2.731217976E0,-9.437985718E-2,3.403367102E-1,1.218320280E-1
2.736272559E0,6.860546023E-2,2.455282658E-1,7.655832916E-2
2.741327090E0,2.188076228E-1,1.746882498E-1,3.661094233E-2
2.746381673E0,3.668792248E-1,1.427303404E-1,1.370777749E-2
2.751436257E0,5.064288378E-1,1.304798126E-1,-7.597493008E-3
2.756490840E0,6.513046622E-1,1.400671899E-1,-3.689223900E-2
2.761536517E0,7.919194102E-1,1.507198215E-1,-6.512171775E-2
2.766591101E0,9.192184210E-1,1.581766754E-1,-9.122067690E-2
2.771645684E0,1.030538559E0,1.746882498E-1,-1.077322513E-1
2.776700267E0,1.118955374E0,2.002545595E-1,-1.130585819E-1
2.781754798E0,1.175414324E0,2.215598524E-1,-1.210480481E-1
2.786809382E0,1.221220613E0,2.359408885E-1,-1.327659637E-1
2.791866934E0,1.275549173E0,2.481914312E-1,-1.450164914E-1
2.796921517E0,1.347454429E0,2.593766749E-1,-1.604628116E-1
2.801976101E0,1.445458531E0,2.886714339E-1,-1.689849198E-1
2.807030684E0,1.559441805E0,3.525872231E-1,-1.700501889E-1
2.812085215E0,1.685142875E0,4.234272540E-1,-1.679196507E-1
2.817139798E0,1.825224996E0,4.825493693E-1,-1.769744009E-1
2.822230007E0,1.973829269E0,5.187683702E-1,-2.020080835E-1
2.827284590E0,2.127759695E0,5.667052269E-1,-2.462165207E-1
2.832339173E0,2.281157732E0,6.247620583E-1,-2.920228541E-1
2.837393705E0,2.412184954E0,6.583178639E-1,-3.372965455E-1
2.842448288E0,2.517113447E0,6.631115675E-1,-3.697870672E-1
2.847502871E0,2.599138737E0,6.609810591E-1,-3.996144831E-1
2.852573548E0,2.683827162E0,6.487305164E-1,-4.390292168E-1
2.857628132E0,2.771178961E0,6.375452280E-1,-4.768460691E-1
2.862682715E0,2.863856554E0,6.540568471E-1,-5.199892521E-1
2.867737298E0,2.973046303E0,7.296905518E-1,-5.551429391E-1
2.872791830E0,3.071050406E0,8.490000367E-1,-5.668608546E-1
2.877846413E0,3.177044153E0,9.640485048E-1,-5.684587359E-1
2.882917351E0,3.310202122E0,1.050867558E0,-5.753830075E-1
2.887971934E0,3.448686361E0,1.090282202E0,-5.828398466E-1
2.893026517E0,3.556277990E0,1.048204303E0,-5.929598212E-1
2.898081048E0,3.640966415E0,9.219706059E-1,-6.131998301E-1
2.903135632E0,3.725655079E0,8.053242564E-1,-6.520819664E-1
2.908190215E0,3.820463419E0,7.802906036E-1,-7.101387978E-1
2.913246153E0,3.920065641E0,8.825558424E-1,-7.655325532E-1
2.918300736E0,4.015407085E0,1.038084388E0,-7.964251637E-1
2.923355267E0,4.082518578E0,1.151534915E0,-7.974904180E-1
2.928409851E0,4.118204594E0,1.212787628E0,-7.724567056E-1
2.933464434E0,4.114476681E0,1.239951730E0,-7.112041116E-1
2.938518965E0,4.070268154E0,1.208526492E0,-6.052103043E-1
2.943611361E0,3.979720116E0,1.071640134E0,-4.688566029E-1
2.948665944E0,3.870530605E0,8.101179004E-1,-3.255786300E-1
2.953720528E0,3.773059130E0,4.985283315E-1,-2.270417809E-1
2.958775059E0,3.717665434E0,2.316798419E-1,-1.940186173E-1
2.963829642E0,3.724056959E0,6.390082836E-2,-2.169217616E-1
2.968884226E0,3.785842180E0,6.376601290E-3,-2.685870528E-1
2.973958965E0,3.890238285E0,5.111766979E-2,-3.234481215E-1
2.979013548E0,4.004754066E0,1.587092876E-1,-3.676565588E-1
2.984068132E0,4.097432137E0,2.663009167E-1,-3.862986863E-1
2.989122663E0,4.142173290E0,3.121072054E-1,-3.703197241E-1
2.994177246E0,4.122998238E0,2.758882642E-1,-3.245134056E-1
2.999231830E0,4.042571068E0,1.853408813E-1,-2.339659929E-1
3.004306361E0,3.906216860E0,4.792187735E-2,-9.974278510E-2
3.009360944E0,3.746427536E0,-1.353034377E-1,5.631832033E-2
3.014415528E0,3.590898991E0,-3.243877292E-1,2.027920485E-1
3.019470111E0,3.451349497E0,-4.639372528E-1,3.125141859E-1
3.024524642E0,3.332040071E0,-5.257224441E-1,3.727015555E-1
3.029579226E0,3.240959883E0,-5.113414526E-1,3.870826364E-1
3.034648444E0,3.161597729E0,-4.335772395E-1,3.737668395E-1
3.039703028E0,3.092888355E0,-3.148003519E-1,3.444721103E-1
3.044757611E0,3.028439760E0,-2.093392462E-1,3.178405166E-1
3.049812194E0,2.954404116E0,-1.587392390E-1,3.066552281E-1
3.054866726E0,2.872911453E0,-1.720550209E-1,3.114489019E-1
3.059921309E0,2.773309231E0,-2.391666174E-1,3.311563134E-1
3.064995996E0,2.649738789E0,-3.712593019E-1,3.838868439E-1
3.070050580E0,2.513385057E0,-5.630066991E-1,4.675100446E-1
3.075105163E0,2.364248276E0,-7.712657452E-1,5.506005287E-1
3.080159694E0,2.197001934E0,-9.337184429E-1,5.857542753E-1
3.085214278E0,2.019102812E0,-1.031190038E0,5.612531900E-1
3.090268861E0,1.834812403E0,-1.054093122E0,4.946742654E-1
3.095338080E0,1.654782891E0,-9.933731556E-1,3.961373866E-1
3.100392663E0,1.482742906E0,-8.671394587E-1,2.709689140E-1
3.105447246E0,1.322420716E0,-7.153394222E-1,1.511267722E-1
3.110501778E0,1.191393256E0,-5.598109365E-1,8.241727948E-2
3.115556361E0,1.093388915E0,-4.277182817E-1,8.188465238E-2
3.120610944E0,1.024679542E0,-3.318445683E-1,1.436699182E-1
3.125677403E0,9.799384475E-1,-2.668634951E-1,2.416741699E-1
3.130731986E0,9.389258027E-1,-2.018823922E-1,3.492657840E-1
3.135786569E0,8.899236917E-1,-1.251834333E-1,4.312910736E-1
3.140841153E0,7.967131138E-1,-2.930972539E-2,4.632489681E-1
3.145895684E0,6.395868063E-1,3.673661128E-2,4.286279082E-1
3.150950267E0,4.297297895E-1,2.821450494E-2,3.455373645E-1
3.156053861E0,1.927086711E-1,-1.226551086E-2,2.422067970E-1
3.161108392E0,-5.549772829E-2,-6.126763299E-2,1.458004415E-1
3.166162976E0,-3.042367697E-1,-1.225202903E-1,6.111200154E-2
3.171217559E0,-5.417904854E-1,-2.263834625E-1,-2.570697293E-2
3.176272142E0,-7.511147857E-1,-3.291814327E-1,-1.114606783E-1
3.181326673E0,-9.300790429E-1,-3.563456535E-1,-1.737785935E-1
3.186392351E0,-1.085074902E0,-2.748529613E-1,-2.115954608E-1
3.191446934E0,-1.232613802E0,-8.630132675E-2,-2.382270545E-1
3.196501517E0,-1.376424432E0,1.778840423E-1,-2.632607520E-1
3.201556048E0,-1.532485604E0,4.655051529E-1,-2.968165278E-1
3.206610632E0,-1.698666692E0,7.254295349E-1,-3.314375877E-1
3.211665215E0,-1.867510915E0,8.980022073E-1,-3.463512957E-1
3.216716309E0,-2.032094479E0,9.656464458E-1,-3.426228762E-1
3.221770892E0,-2.184959888E0,9.347537756E-1,-3.394270837E-1
3.226825476E0,-2.317584991E0,8.229011297E-1,-3.511449993E-1
3.231880059E0,-2.423578739E0,6.876125932E-1,-3.767113090E-1
3.236934590E0,-2.495483875E0,6.114462614E-1,-4.241155386E-1
3.241989173E0,-2.526376486E0,6.364799738E-1,-4.784439802E-1
3.247057142E0,-2.516789436E0,7.435389757E-1,-5.183913708E-1
3.252111726E0,-2.470450163E0,8.719031811E-1,-5.279787779E-1
3.257166257E0,-2.405469418E0,9.448738098E-1,-5.125324130E-1
3.262220840E0,-2.339422941E0,9.331558943E-1,-4.768460691E-1
3.267275476E0,-2.282963991E0,8.394126892E-1,-4.299744964E-1
3.272330007E0,-2.235027075E0,6.865473390E-1,-3.756460249E-1
3.277407611E0,-2.194546938E0,5.246273279E-1,-3.202523589E-1
3.282462246E0,-2.153534412E0,3.925346136E-1,-2.835007310E-1
3.287516778E0,-2.109325886E0,3.025198281E-1,-2.605975568E-1
3.292571361E0,-2.068845987E0,2.322124839E-1,-2.488796860E-1
3.297625944E0,-2.037420750E0,1.565787643E-1,-2.467491478E-1
3.302680476E0,-2.015050173E0,7.189030200E-2,-2.510102093E-1
3.307742663E0,-2.002799511E0,-1.918972284E-2,-2.430207431E-1
3.312797246E0,-1.992679358E0,-1.193244979E-1,-2.121280879E-1
3.317851830E0,-1.981494069E0,-2.407645285E-1,-1.684522927E-1
3.322906361E0,-1.968711019E0,-3.568782508E-1,-1.114606783E-1
3.327960944E0,-1.947938323E0,-4.538172185E-1,-5.446908623E-2
3.333015528E0,-1.918643475E0,-5.305161476E-1,-8.130124770E-3
3.338121465E0,-1.876565576E0,-5.752572417E-1,2.382777818E-2
3.343175996E0,-1.822769880E0,-5.736593604E-1,2.649093978E-2
3.348230580E0,-1.762049913E0,-5.411688089E-1,1.157725044E-2
3.353285163E0,-1.698666692E0,-4.847098589E-1,-5.999596789E-3
3.358339694E0,-1.650729775E0,-4.128046036E-1,-1.452170592E-2
3.363394278E0,-1.624630809E0,-3.856403828E-1,-1.026065182E-2
3.368472663E0,-1.627826571E0,-4.389035702E-1,-4.401701968E-3
3.373527246E0,-1.668839335E0,-5.656698346E-1,-1.738543506E-3
3.378581830E0,-1.732222438E0,-7.227962613E-1,5.718301516E-3
3.383636413E0,-1.812117219E0,-8.740636706E-1,2.649093978E-2
3.388690996E0,-1.895740390E0,-9.992321134E-1,5.685095116E-2
3.393745528E0,-1.964449883E0,-1.080724716E0,7.762359828E-2
3.398811361E0,-2.015582800E0,-1.117476344E0,8.401517570E-2
3.403868444E0,-2.054997683E0,-1.125998497E0,7.868885994E-2
3.408925528E0,-2.091749191E0,-1.101497412E0,7.389517128E-2
3.413982611E0,-2.129033327E0,-1.061017513E0,7.549306750E-2
3.419039746E0,-2.169513226E0,-1.027461648E0,9.253728390E-2
3.424096830E0,-2.206264973E0,-1.006688952E0,1.356804520E-1
3.429194746E0,-2.231831312E0,-9.960362911E-1,1.862804592E-1
3.434251778E0,-2.248875618E0,-9.869816303E-1,2.326194346E-1
3.439308861E0,-2.264854670E0,-9.789921045E-1,2.805562615E-1
3.444365944E0,-2.261126041E0,-9.704700112E-1,3.284931183E-1
3.449423080E0,-2.233429193E0,-9.539584517E-1,3.817563057E-1
3.454480163E0,-2.199340582E0,-9.172068238E-1,4.414110780E-1
3.459522038E0,-2.167915344E0,-8.687373400E-1,5.079900026E-1
3.464579121E0,-2.159926176E0,-7.941688895E-1,5.793626904E-1
3.469636205E0,-2.172176600E0,-6.929688454E-1,6.518005729E-1
3.474693288E0,-2.206797600E0,-6.141393185E-1,7.364889979E-1
3.479750371E0,-2.273376465E0,-5.901709795E-1,8.323627114E-1
3.484807455E0,-2.362858772E0,-6.242594123E-1,9.298343658E-1
3.489832038E0,-2.458199739E0,-6.993604898E-1,1.013457656E0
3.494889121E0,-2.554073572E0,-7.915057540E-1,1.075242996E0
3.499946205E0,-2.638229370E0,-9.001625776E-1,1.121581912E0
3.505003288E0,-2.711732388E0,-1.015743732E0,1.153539896E0
3.510060423E0,-2.767658710E0,-1.107356310E0,1.172714591E0
3.515117507E0,-2.816128254E0,-1.145173192E0,1.196683049E0
3.520223965E0,-2.861402035E0,-1.121737480E0,1.213194489E0
3.525281048E0,-2.902414560E0,-1.036516309E0,1.221716762E0
3.530338132E0,-2.927981138E0,-9.118804932E-1,1.236630440E0
3.535395267E0,-2.929579020E0,-7.478299737E-1,1.269653559E0
3.540452351E0,-2.911469221E0,-5.502235889E-1,1.311731458E0
3.545509434E0,-2.893892527E0,-3.190613985E-1,1.343689442E0
3.550542663E0,-2.886968374E0,-8.576869965E-2,1.355939865E0
3.555599746E0,-2.879511595E0,9.266294539E-2,1.335167289E0
3.560656882E0,-2.863532543E0,1.949282587E-1,1.293622017E0
3.565713965E0,-2.822519779E0,2.407345772E-1,1.237163067E0
3.570771048E0,-2.761267185E0,2.439303845E-1,1.153539896E0
3.575828132E0,-2.696286201E0,2.476588041E-1,1.059796691E0
3.580884226E0,-2.641425133E0,2.955956459E-1,9.921522737E-1
3.585941309E0,-2.564193487E0,4.106441140E-1,9.335628152E-1
3.590998444E0,-2.452340841E0,5.714989305E-1,8.909522891E-1
3.596055528E0,-2.310128212E0,7.169073820E-1,8.510048985E-1
3.601112611E0,-2.125304937E0,8.308905363E-1,8.078616858E-1
3.606169694E0,-1.924502492E0,8.772295713E-1,7.668490410E-1
3.611204798E0,-1.734885573E0,8.362169266E-1,7.103900909E-1
3.616261882E0,-1.550062418E0,7.600505352E-1,6.390174031E-1
3.621318965E0,-1.351390719E0,7.110484838E-1,5.500679612E-1
3.626376048E0,-1.136207461E0,7.014610767E-1,4.483352900E-1
3.631433184E0,-9.130347967E-1,7.307558060E-1,3.535268307E-1
3.636490267E0,-6.877315640E-1,7.733663321E-1,2.805562615E-1
3.641563184E0,-4.885273576E-1,7.962695360E-1,2.432720661E-1
3.646620267E0,-3.282051980E-1,7.675073743E-1,2.443373203E-1
3.651677351E0,-2.072977871E-1,6.945368648E-1,2.651099563E-1
3.656734486E0,-1.135545969E-1,6.109136343E-1,2.784257531E-1
3.661791517E0,-4.005140811E-2,5.427368283E-1,2.704362869E-1
3.666848653E0,2.865808643E-2,4.900062382E-1,2.368804812E-1
3.671908288E0,1.026938930E-1,4.463304281E-1,1.878783554E-1
3.676965371E0,1.852518171E-1,4.346125126E-1,1.383436173E-1
3.682022507E0,2.784623504E-1,4.761578143E-1,8.827622980E-2
3.687079590E0,3.956413567E-1,5.406062603E-1,3.181725740E-2
3.692136673E0,5.367888212E-1,6.130442023E-1,-2.410907857E-2
3.697193757E0,7.061656713E-1,6.684378386E-1,-7.897014916E-2
3.702263757E0,8.947173357E-1,6.966673732E-1,-1.183848977E-1
3.707320840E0,1.090725899E0,7.073200345E-1,-1.439512223E-1
3.712377976E0,1.288864970E0,7.057220936E-1,-1.599301696E-1
3.717435059E0,1.485405922E0,7.025263309E-1,-1.689849198E-1
3.722492142E0,1.667033434E0,7.062547803E-1,-1.615280807E-1
3.727549226E0,1.847062945E0,7.318210602E-1,-1.412880719E-1
3.732627819E0,2.026026964E0,7.712358236E-1,-1.199827865E-1
3.737684903E0,2.189544916E0,8.314232230E-1,-1.045364663E-1
3.742741986E0,2.330159664E0,8.820232749E-1,-1.013406739E-1
3.747799069E0,2.444675446E0,8.937411308E-1,-1.301027983E-1
3.752856153E0,2.548538685E0,8.569895625E-1,-1.897575557E-1
3.757913236E0,2.649738789E0,7.691053152E-1,-2.845660150E-1
3.762976413E0,2.744547367E0,6.194357872E-1,-3.985491991E-1
3.768033496E0,2.843084097E0,4.335472882E-1,-5.183913708E-1
3.773090632E0,2.954936743E0,2.785514295E-1,-6.323745847E-1
3.778147663E0,3.079040051E0,2.417998463E-1,-7.367703915E-1
3.783204798E0,3.205273628E0,2.806819379E-1,-8.251872659E-1
3.788231934E0,3.321387291E0,3.398040831E-1,-8.970925212E-1
3.793288965E0,3.406075954E0,4.138398767E-1,-9.524862766E-1
3.798346048E0,3.460937023E0,5.177031159E-1,-9.945641756E-1
3.803403132E0,3.498221159E0,6.540568471E-1,-1.013206124E0
3.808460267E0,3.503547430E0,7.866821289E-1,-9.998903871E-1
3.813517351E0,3.469458818E0,8.878822327E-1,-9.652693868E-1
3.818574434E0,3.404478073E0,9.688422084E-1,-9.162672758E-1
3.823635736E0,3.334170580E0,1.027431607E0,-8.592756987E-1
3.828692871E0,3.272917986E0,1.054595947E0,-8.006862402E-1
3.833749903E0,3.233503103E0,1.032225370E0,-7.346398830E-1
3.838806986E0,3.226046324E0,9.597874880E-1,-6.707240343E-1
3.843864121E0,3.259069443E0,8.553916812E-1,-6.057429910E-1
3.848921257E0,3.329376936E0,7.414084673E-1,-5.450229645E-1
3.853978965E0,3.418859005E0,6.263599992E-1,-4.805744886E-1
3.859036101E0,3.508341312E0,4.963978231E-1,-4.177239239E-1
3.864093132E0,3.585040331E0,3.414019942E-1,-3.543407619E-1
3.869150267E0,3.648956060E0,1.682966650E-1,-2.925554812E-1
3.874207351E0,3.695294857E0,-8.004456758E-3,-2.360965163E-1
3.879264486E0,3.725122213E0,-1.528802812E-1,-1.823007017E-1
3.884328965E0,3.749090672E0,-2.444929481E-1,-1.375596523E-1
3.889386101E0,3.777320147E0,-2.807119191E-1,-1.114606783E-1
3.894443132E0,3.808212757E0,-2.748529613E-1,-1.045364663E-1
3.899500267E0,3.831115961E0,-2.375687361E-1,-1.066669896E-1
3.904557351E0,3.842833996E0,-1.677939743E-1,-1.082648933E-1
3.909614434E0,3.828985453E0,-7.671395689E-2,-1.114606783E-1
3.914708340E0,3.792766571E0,-1.705919579E-2,-1.024059355E-1
3.919765423E0,3.732578993E0,-3.743402427E-3,-7.683961838E-2
3.924822507E0,3.646292686E0,-2.451604046E-2,-3.795750067E-2
3.929879590E0,3.537635803E0,-6.499605626E-2,7.316196803E-3
3.934936673E0,3.409271717E0,-1.230529249E-1,6.963411719E-2
3.939993809E0,3.275580883E0,-1.954908222E-1,1.500615031E-1
3.945018965E0,3.153608322E0,-2.897666693E-1,2.390110046E-1
3.950076048E0,3.045484066E0,-3.733898699E-1,3.311563134E-1
3.955133132E0,2.952806234E0,-4.282509089E-1,4.099858105E-1
3.960190215E0,2.884096622E0,-4.596761763E-1,4.749668837E-1
3.965247298E0,2.828703165E0,-4.783183038E-1,5.186426640E-1
3.970304434E0,2.788223028E0,-5.044172406E-1,5.426110625E-1
3.975361673E0,2.745612383E0,-5.731267333E-1,5.442090034E-1
3.980418757E0,2.688088417E0,-6.903057098E-1,5.442090034E-1
3.985475840E0,2.605530262E0,-8.202678561E-1,5.490027070E-1
3.990532976E0,2.506993294E0,-9.166741967E-1,5.490027070E-1
3.995590007E0,2.396205902E0,-9.528931975E-1,5.426110625E-1
4.000647090E0,2.291810274E0,-9.310552478E-1,5.303605199E-1
4.005710632E0,2.200197458E0,-8.554215431E-1,5.053268671E-1
4.010767715E0,2.117639542E0,-7.520909905E-1,4.685752988E-1
4.015824798E0,2.033483744E0,-6.402383447E-1,4.195731878E-1
4.020881882E0,1.920566082E0,-5.092108846E-1,3.711036742E-1
4.025938965E0,1.778886080E0,-3.659330010E-1,3.423415720E-1
4.030996101E0,1.610574365E0,-2.247855663E-1,3.119815588E-1
4.036055528E0,1.420424819E0,-7.351817191E-2,2.816215456E-1
4.041112611E0,1.220155358E0,7.508609444E-2,2.507289052E-1
4.046169694E0,1.024679542E0,1.794819385E-1,2.081183642E-1
4.051226778E0,8.377257586E-1,2.343430072E-1,1.628446579E-1
4.056283913E0,6.555657387E-1,2.402019501E-1,1.212994009E-1
4.061340996E0,4.792645574E-1,2.236903757E-1,7.496043295E-2
4.066403184E0,3.050939441E-1,2.178314179E-1,1.530567277E-2
4.071460319E0,1.538265496E-1,2.050482482E-1,-6.405644864E-2
4.076517403E0,3.771282732E-2,1.794819385E-1,-1.476796418E-1
4.081574486E0,-4.591035843E-2,1.539155990E-1,-2.099975646E-1
4.086631621E0,-1.204788089E-1,1.336756051E-1,-2.371617705E-1
4.091688705E0,-1.977104098E-1,1.299471706E-1,-2.238459885E-1
4.096751309E0,-2.744094133E-1,1.539155990E-1,-1.865617633E-1
4.101808392E0,-3.553694189E-1,1.927977353E-1,-1.540712267E-1
4.106865528E0,-4.437862933E-1,2.391366959E-1,-1.556691229E-1
4.111922559E0,-5.465841889E-1,3.041177392E-1,-1.801701784E-1
4.116979694E0,-6.664263010E-1,3.589788377E-1,-1.961491406E-1
4.122036778E0,-7.990515828E-1,3.786861897E-1,-1.892249286E-1
4.127093601E0,-9.508516192E-1,3.515219688E-1,-1.684522927E-1
4.132150684E0,-1.126620173E0,2.854756415E-1,-1.428859532E-1
4.137207767E0,-1.304519057E0,1.890693009E-1,-1.189175248E-1
4.142264851E0,-1.467504501E0,7.561872154E-2,-1.018733084E-1
4.147321986E0,-1.605456114E0,-1.812445931E-2,-1.098627895E-1
4.152379069E0,-1.707721353E0,-8.257290721E-2,-1.370270103E-1
4.157438861E0,-1.767376184E0,-1.400971264E-1,-1.556691229E-1
4.162495944E0,-1.790279388E0,-1.928276718E-1,-1.652565002E-1
4.167553028E0,-1.797203541E0,-2.327750474E-1,-1.727133393E-1
4.172610111E0,-1.805192947E0,-2.311771512E-1,-1.940186173E-1
4.177667246E0,-1.822237253E0,-1.752508283E-1,-2.323680967E-1
4.182724330E0,-1.845673084E0,-7.138764113E-2,-2.744460106E-1
4.187785944E0,-1.870706797E0,4.951977357E-2,-2.941533923E-1
4.192843080E0,-1.886152983E0,1.656334996E-1,-2.755112648E-1
4.197900163E0,-1.894675136E0,2.529851198E-1,-2.131933570E-1
4.202957246E0,-1.897870898E0,2.913345993E-1,-1.045364663E-1
4.208014330E0,-1.892544627E0,2.700293064E-1,2.542567626E-2
4.213071465E0,-1.887750983E0,2.258208990E-1,1.473983526E-1
4.218131986E0,-1.874435186E0,2.066461444E-1,2.304889113E-1
4.223189069E0,-1.852064610E0,2.172987908E-1,2.651099563E-1
4.228246153E0,-1.820639372E0,2.172987908E-1,2.688383758E-1
4.233303236E0,-1.782822490E0,1.416650712E-1,2.555226088E-1
4.238360371E0,-1.755658269E0,-2.238551155E-2,2.374131083E-1
4.243417455E0,-1.754593015E0,-2.482213676E-1,2.182383686E-1
4.248491830E0,-1.794540405E0,-4.820467234E-1,1.953352094E-1
4.253548965E0,-1.880826712E0,-6.748593450E-1,1.841499358E-1
4.258606048E0,-1.995875239E0,-7.904404998E-1,1.788236201E-1
4.263663132E0,-2.132229090E0,-8.245289326E-1,1.766930819E-1
4.268720267E0,-2.268050194E0,-7.888425589E-1,1.713667810E-1
4.273777351E0,-2.394284010E0,-7.185352445E-1,1.575183570E-1
4.278842507E0,-2.502408266E0,-6.556846499E-1,1.346151829E-1
4.283899590E0,-2.579639673E0,-6.066825390E-1,1.058530733E-1
4.288956673E0,-2.635033607E0,-5.512888432E-1,7.282990962E-2
4.294013809E0,-2.673915625E0,-4.756551385E-1,3.448041901E-2
4.299070944E0,-2.699481964E0,-3.914993405E-1,5.718301516E-3
4.304127976E0,-2.705340862E0,-3.377035260E-1,8.381459862E-3
4.309200528E0,-2.688296795E0,-3.169308603E-1,5.312252790E-2
4.314257611E0,-2.657936573E0,-3.084087670E-1,1.388762295E-1
4.319314694E0,-2.612130404E0,-3.174634874E-1,2.576531172E-1
4.324371830E0,-2.555671453E0,-3.243877292E-1,3.892131746E-1
4.329428913E0,-2.509332418E0,-3.105393052E-1,4.989353120E-1
4.334485996E0,-2.483766079E0,-2.546129525E-1,5.420784354E-1
4.339527194E0,-2.486962080E0,-1.587392390E-1,5.101205707E-1
4.344584278E0,-2.513060808E0,-5.753921345E-2,4.563247561E-1
4.349641413E0,-2.567921877E0,4.778706003E-3,4.115837216E-1
4.354698496E0,-2.660067320E0,1.223554928E-2,3.929415941E-1
4.359755580E0,-2.783637762E0,-4.049499705E-2,4.067900181E-1
4.364812663E0,-2.933307171E0,-1.246508136E-1,4.392805398E-1
4.369883965E0,-3.077650547E0,-2.114697695E-1,4.786952734E-1
4.374941048E0,-3.191101074E0,-2.982887626E-1,5.223711133E-1
4.379998184E0,-3.268332481E0,-3.867056370E-1,5.766994953E-1
4.385055215E0,-3.312541008E0,-4.740572572E-1,6.299626827E-1
4.390112351E0,-3.325856924E0,-5.363751054E-1,6.704427004E-1
4.395169434E0,-3.307747364E0,-5.422340631E-1,6.960090399E-1
4.400193236E0,-3.259810686E0,-4.911014736E-1,7.178469300E-1
4.405250319E0,-3.207612514E0,-4.042825103E-1,7.615227103E-1
4.410307403E0,-3.159675837E0,-3.052129745E-1,8.163837790E-1
4.415364486E0,-3.111206293E0,-2.285139859E-1,8.632553816E-1
4.420421569E0,-3.065932751E0,-1.789792478E-1,8.978764415E-1
4.425478705E0,-3.057410479E0,-1.267813295E-1,9.175838828E-1
4.430573913E0,-3.082444191E0,-6.446342170E-2,9.277038574E-1
4.435631465E0,-3.109608412E0,-2.132024989E-2,9.420849085E-1
4.440689017E0,-3.128783226E0,-7.471824531E-3,9.777712226E-1
4.445746569E0,-3.131446362E0,-3.410341218E-2,1.014522910E0
4.450804069E0,-3.106412649E0,-9.109501541E-2,1.040089250E0
4.455861621E0,-3.052616835E0,-1.550108194E-1,1.066720843E0
4.460971673E0,-2.978048325E0,-2.247855663E-1,1.080569267E0
4.466029173E0,-2.891229391E0,-2.929624617E-1,1.072047234E0
4.471086778E0,-2.800149202E0,-3.451603651E-1,1.053937674E0
4.476144278E0,-2.708003998E0,-3.829772174E-1,1.014522910E0
4.481201882E0,-2.586564064E0,-3.925645947E-1,9.458132982E-1
4.486259382E0,-2.441688299E0,-3.760530055E-1,8.526027799E-1
4.491244330E0,-2.308530331E0,-3.387688100E-1,7.263690233E-1
4.496301882E0,-2.180166006E0,-2.950929701E-1,6.129184365E-1
4.501359434E0,-2.062454462E0,-2.737877071E-1,5.276973844E-1
4.506416986E0,-1.968178272E0,-2.743203342E-1,4.653795063E-1
4.511474538E0,-1.888283491E0,-2.599392831E-1,4.312910736E-1
4.516532038E0,-1.805192947E0,-2.396992594E-1,4.312910736E-1
4.521594017E0,-1.697601438E0,-2.050781995E-1,4.435415864E-1
4.526651569E0,-1.568704486E0,-1.512823850E-1,4.478026330E-1
4.531709121E0,-1.430752873E0,-6.286553293E-2,4.488679171E-1
4.536766673E0,-1.307182312E0,5.324819311E-2,4.456721246E-1
4.541824173E0,-1.199058056E0,1.613724530E-1,4.248994887E-1
4.546881726E0,-1.099455833E0,2.423324734E-1,4.025289714E-1
4.551915996E0,-9.886685014E-1,2.860082686E-1,3.657773733E-1
4.556973496E0,-8.730874062E-1,3.169009089E-1,3.258299828E-1
4.562031048E0,-7.580389380E-1,3.216945827E-1,2.848173380E-1
4.567088653E0,-6.302073598E-1,3.057156503E-1,2.438046932E-1
4.572146153E0,-4.949189425E-1,2.748230100E-1,2.033246756E-1
4.577203757E0,-3.574999571E-1,2.295493186E-1,1.649751812E-1
4.582287455E0,-2.227441072E-1,2.114398330E-1,1.239625514E-1
4.587345007E0,-8.745564520E-2,2.306145877E-1,8.135201037E-2
4.592402559E0,4.730019718E-2,2.577787936E-1,3.767620772E-2
4.597460111E0,1.916434020E-1,2.854756415E-1,-1.205911743E-3
4.602517663E0,3.402476311E-1,3.147704005E-1,-3.209855407E-2
4.607575215E0,4.936455786E-1,3.520545959E-1,-5.873014033E-2
4.612628965E0,6.491740942E-1,3.935998976E-1,-7.098066807E-2
4.617686517E0,8.041699529E-1,4.580483139E-1,-7.311119139E-2
4.622744069E0,9.549047947E-1,5.182357430E-1,-7.577435672E-2
4.627801621E0,1.102443814E0,5.677704811E-1,-8.962278068E-2
4.632859173E0,1.253711104E0,5.880104899E-1,-1.178522557E-1
4.637916673E0,1.415631294E0,5.869452357E-1,-1.641912460E-1
4.642974642E0,1.585540652E0,5.741620660E-1,-2.233133614E-1
4.648032246E0,1.756515503E0,5.549873114E-1,-2.893596888E-1
4.653089746E0,1.922696710E0,5.438020825E-1,-3.522102237E-1
4.658147298E0,2.086214304E0,5.603136420E-1,-4.038755298E-1
4.663204851E0,2.246536493E0,5.949347019E-1,-4.502144754E-1
4.668262403E0,2.395140886E0,6.205010414E-1,-4.837702811E-1
4.673323444E0,2.519776583E0,6.465999484E-1,-5.056082010E-1
4.678381048E0,2.626302958E0,6.812210679E-1,-5.146629810E-1
4.683438548E0,2.725372553E0,7.067873478E-1,-5.072061419E-1
4.688496101E0,2.808995485E0,7.089179158E-1,-4.954881966E-1
4.693553653E0,2.867585182E0,6.982652545E-1,-4.837702811E-1
4.698611205E0,2.914456606E0,6.902758479E-1,-4.811071157E-1
4.703672767E0,2.949610472E0,6.764273643E-1,-4.848355353E-1
4.708730371E0,2.974644184E0,6.279578805E-1,-5.029450655E-1
4.713787871E0,3.008732557E0,5.555199385E-1,-5.391640067E-1
4.718845476E0,3.049745321E0,4.910714924E-1,-5.860356092E-1
4.723902976E0,3.103008509E0,4.553851783E-1,-6.451576948E-1
4.728960528E0,3.170120001E0,4.569830596E-1,-7.048125267E-1
4.734017663E0,3.249482155E0,4.963978231E-1,-7.468903661E-1
4.739075267E0,3.338431597E0,5.613788962E-1,-7.772504091E-1
4.744132767E0,3.422587395E0,6.284905672E-1,-8.022841215E-1
4.749190319E0,3.488633633E0,6.609810591E-1,-8.124040961E-1
4.754247871E0,3.527515888E0,6.274252534E-1,-7.953598499E-1
4.759305371E0,3.553614855E0,5.118441582E-1,-7.745872736E-1
4.764363184E0,3.576518059E0,3.547177613E-1,-7.681956887E-1
4.769420788E0,3.613802195E0,2.268861532E-1,-7.836419940E-1
4.774478288E0,3.675054789E0,1.517850757E-1,-8.150672317E-1
4.779535840E0,3.756547451E0,1.421977133E-1,-8.480904698E-1
4.784593392E0,3.859878063E0,2.013198286E-1,-8.800483346E-1
4.789650944E0,3.984513760E0,3.051830232E-1,-9.125388861E-1
4.794707194E0,4.113410950E0,4.228946269E-1,-9.338441491E-1
4.799764746E0,4.230057716E0,5.086483955E-1,-9.322462678E-1
4.804822298E0,4.319006920E0,5.304862857E-1,-9.061473012E-1
4.809879851E0,4.350431919E0,4.937346280E-1,-8.470251560E-1
4.814937403E0,4.315811157E0,4.143725336E-1,-7.618041039E-1
4.819994955E0,4.231122494E0,3.094440699E-1,-6.648651361E-1
4.825058757E0,4.116074085E0,2.050482482E-1,-5.748503208E-1
4.830116309E0,3.991970778E0,1.192945242E-1,-5.135977268E-1
4.835173861E0,3.879052877E0,5.431345478E-2,-4.763134420E-1
4.840231413E0,3.771461010E0,2.501871251E-2,-4.395618737E-1
4.845288965E0,3.662271738E0,3.247555718E-2,-4.070713222E-1
4.850346517E0,3.549886465E0,5.431345478E-2,-3.719176054E-1
4.855374278E0,3.436968327E0,5.857451633E-2,-3.234481215E-1
4.860431830E0,3.319789410E0,2.501871251E-2,-2.733807266E-1
4.865489330E0,3.205273628E0,-6.499605626E-2,-2.195849270E-1
4.870546882E0,3.083833694E0,-1.933602989E-1,-1.663217694E-1
4.875604434E0,2.950675726E0,-3.158656359E-1,-1.050691009E-1
4.880661986E0,2.824974537E0,-3.952277601E-1,-2.464170940E-2
4.885758340E0,2.728568316E0,-4.415667057E-1,8.081938326E-2
4.890815944E0,2.661989212E0,-4.863077700E-1,1.910741478E-1
4.895873496E0,2.621509314E0,-5.310488343E-1,2.991983891E-1
4.900930996E0,2.603399754E0,-5.784530640E-1,4.009310603E-1
4.905988548E0,2.590083838E0,-6.317162514E-1,4.994679391E-1
4.911046101E0,2.561854362E0,-6.913709641E-1,5.937437415E-1
4.916090267E0,2.502199888E0,-7.435688972E-1,6.794974208E-1
4.921147819E0,2.413782835E0,-7.563520670E-1,7.593922019E-1
4.926205319E0,2.310985088E0,-7.249267697E-1,8.275690675E-1
4.931262923E0,2.194871187E0,-6.615435481E-1,8.776364923E-1
4.936320423E0,2.068637609E0,-5.869751573E-1,8.898869753E-1
4.941377976E0,1.929088235E0,-5.150698423E-1,8.659185767E-1
4.946431361E0,1.778886080E0,-4.570130408E-1,8.185143471E-1
4.951488913E0,1.619629145E0,-4.154677391E-1,7.689795494E-1
4.956546465E0,1.447589159E0,-3.925645947E-1,7.258363962E-1
4.961604017E0,1.267559648E0,-3.856403828E-1,6.890848279E-1
4.966661569E0,1.083269000E0,-3.936298490E-1,6.438111067E-1
4.971719069E0,8.957826495E-1,-4.175983071E-1,5.873521566E-1
4.976831048E0,7.019046545E-1,-4.628719687E-1,5.106531382E-1
4.981888601E0,5.021677613E-1,-5.347772241E-1,4.110510647E-1
4.986946101E0,2.901802659E-1,-5.805835724E-1,3.077204823E-1
4.992003705E0,6.647493690E-2,-5.257224441E-1,2.134446800E-1
4.997061257E0,-1.678830385E-1,-3.925645947E-1,1.159730852E-1
5.002118757E0,-4.001104832E-1,-2.365034819E-1,2.063198946E-2
5.007132403E0,-6.120978594E-1,-1.006823853E-1,-4.434908554E-2
5.012189903E0,-7.883989811E-1,-2.664656751E-2,-5.926277116E-2
5.017247507E0,-9.396663904E-1,-1.386340614E-2,-4.275118560E-2
5.022305007E0,-1.071226358E0,-3.357077762E-2,-4.934333730E-3
5.027362559E0,-1.173491716E0,-4.901709780E-2,4.460041970E-2
5.032420111E0,-1.245397091E0,-3.516867384E-2,9.200464934E-2
5.037497142E0,-1.286942363E0,1.436607633E-2,1.218320280E-1
5.042554694E0,-1.322095990E0,9.532609582E-2,1.228972897E-1
5.047612246E0,-1.371098042E0,2.007872015E-1,8.987411857E-2
5.052669798E0,-1.443003416E0,3.094440699E-1,1.424040925E-2
5.057727351E0,-1.536213994E0,3.930672705E-1,-1.056017280E-1
5.062784851E0,-1.658719301E0,4.745599031E-1,-2.685870528E-1
5.067835111E0,-1.800931931E0,5.933368206E-1,-4.608671367E-1
5.072892611E0,-1.946340442E0,7.366147637E-1,-6.637998819E-1
5.077950215E0,-2.072041750E0,8.601853251E-1,-8.518188596E-1
5.083007715E0,-2.159393311E0,9.161116481E-1,-9.876399636E-1
5.088065267E0,-2.187090158E0,8.830885291E-1,-1.044631362E0
5.093122819E0,-2.167915344E0,8.063895106E-1,-1.038239837E0
5.098160007E0,-2.132229090E0,7.659094930E-1,-9.972273707E-1
5.103217559E0,-2.081096411E0,7.680400610E-1,-9.444967508E-1
5.108275111E0,-2.021974325E0,7.627137303E-1,-8.720588088E-1
5.113332663E0,-1.951134086E0,6.647094488E-1,-7.751199007E-1
5.118390215E0,-1.876033068E0,4.356777966E-1,-6.707240343E-1
5.123447767E0,-1.828096151E0,1.299471706E-1,-5.860356092E-1
5.128493601E0,-1.829694033E0,-1.944255680E-1,-5.301092267E-1
5.133551153E0,-1.870706797E0,-4.820467234E-1,-4.949555397E-1
5.138608705E0,-1.931426764E0,-6.913709641E-1,-4.763134420E-1
5.143666257E0,-1.993744731E0,-8.208004832E-1,-4.560734332E-1
5.148723809E0,-2.041681767E0,-9.097499847E-1,-4.289092124E-1
5.153781361E0,-2.068313360E0,-1.018406868E0,-3.990818560E-1
5.158894434E0,-2.093879700E0,-1.168076396E0,-3.777765632E-1
5.163951882E0,-2.129033327E0,-1.312952280E0,-3.756460249E-1
5.169009486E0,-2.170045853E0,-1.395510077E0,-3.873639107E-1
5.174066986E0,-2.215319633E0,-1.380596399E0,-3.990818560E-1
5.179124538E0,-2.262191296E0,-1.294842720E0,-4.049407840E-1
5.184182090E0,-2.311726093E0,-1.204295397E0,-3.921576142E-1
5.189208757E0,-2.360195637E0,-1.146238565E0,-3.564712703E-1
5.194266257E0,-2.398545027E0,-1.147303700E0,-2.829681039E-1
5.199323861E0,-2.424111366E0,-1.170206904E0,-1.759091318E-1
5.204381361E0,-2.431035519E0,-1.156891108E0,-5.500171706E-2
5.209438913E0,-2.418785095E0,-1.074333191E0,6.484042853E-2
5.214496465E0,-2.383098602E0,-9.374468327E-1,1.681709886E-1
5.219560580E0,-2.329835415E0,-7.776573300E-1,2.507289052E-1
5.224618080E0,-2.263789177E0,-6.375752091E-1,3.141120970E-1
5.229675684E0,-2.210525990E0,-5.662025213E-1,3.663100004E-1
5.234733184E0,-2.174306870E0,-5.699309111E-1,4.137142301E-1
5.239790736E0,-2.164187193E0,-6.407709122E-1,4.557921588E-1
5.244848288E0,-2.176970243E0,-7.403731346E-1,4.882826507E-1
5.249899798E0,-2.204134226E0,-8.319857717E-1,5.053268671E-1
5.254957351E0,-2.237157583E0,-9.012278914E-1,5.127837062E-1
5.260014903E0,-2.265387058E0,-9.438384175E-1,5.047942400E-1
5.265072455E0,-2.293083906E0,-9.656763077E-1,4.904132187E-1
5.270130007E0,-2.336227179E0,-9.768615961E-1,4.893479347E-1
5.275187507E0,-2.410795450E0,-9.752636552E-1,4.989353120E-1
5.280222351E0,-2.512528181E0,-9.443710446E-1,5.276973844E-1
5.285279903E0,-2.631837606E0,-8.602152467E-1,5.782974362E-1
5.290337455E0,-2.756473541E0,-7.291877866E-1,6.400827169E-1
5.295394955E0,-2.873652697E0,-5.832467079E-1,7.141185403E-1
5.300452559E0,-2.957275629E0,-4.644698799E-1,7.982742786E-1
5.305510059E0,-2.986570358E0,-3.792487979E-1,8.920175433E-1
5.310582923E0,-2.960471392E0,-3.169308603E-1,9.857606888E-1
5.315640476E0,-2.900816679E0,-2.753856182E-1,1.057133436E0
5.320698028E0,-2.830509424E0,-2.370360941E-1,1.104005098E0
5.325755528E0,-2.780441999E0,-1.598045081E-1,1.126908302E0
5.330813080E0,-2.756473541E0,-3.410341218E-2,1.133299828E0
5.335870632E0,-2.752745152E0,9.692399204E-2,1.127973437E0
5.340919486E0,-2.760734797E0,2.066461444E-1,1.102407217E0
5.345977038E0,-2.771919966E0,2.599093020E-1,1.053937674E0
5.351034590E0,-2.790562153E0,2.247556299E-1,1.009729266E0
5.356092142E0,-2.793757915E0,8.360820264E-2,9.767059088E-1
5.361149642E0,-2.775648355E0,-1.267813295E-1,9.495417476E-1
5.366207194E0,-2.754875660E0,-3.142677248E-1,9.127901793E-1
5.371278444E0,-2.737831354E0,-4.362403750E-1,8.526027799E-1
5.376335996E0,-2.725580931E0,-5.401035547E-1,7.593922019E-1
5.381393548E0,-2.695220947E0,-6.306509376E-1,6.512679458E-1
5.386451101E0,-2.640892506E0,-6.982951760E-1,5.724384785E-1
5.391508653E0,-2.567389250E0,-7.169373035E-1,5.218384266E-1
5.396566205E0,-2.480570316E0,-6.812509894E-1,4.754995108E-1
5.401638757E0,-2.379902840E0,-6.077477932E-1,4.430089593E-1
5.406696309E0,-2.261658669E0,-5.033519864E-1,4.217036963E-1
5.411753861E0,-2.145545006E0,-3.856403828E-1,4.078552723E-1
5.416811413E0,-2.038486004E0,-2.466234714E-1,3.886805475E-1
5.421868913E0,-1.944209933E0,-1.049434394E-1,3.711036742E-1
5.426926465E0,-1.853662491E0,2.981239744E-2,3.572552502E-1
5.431968340E0,-1.774832964E0,1.469914019E-1,3.444721103E-1
5.437025892E0,-1.715178132E0,2.380714267E-1,3.295584023E-1
5.442083392E0,-1.650729775E0,2.971935570E-1,3.071878552E-1
5.447140944E0,-1.571900368E0,3.254230022E-1,2.677731216E-1
5.452198496E0,-1.478157043E0,3.190314472E-1,2.070530951E-1
5.457256101E0,-1.355651855E0,2.726924717E-1,1.244951859E-1
5.462320059E0,-1.211841226E0,2.370061725E-1,4.246989265E-2
5.467377611E0,-1.062704325E0,2.386040539E-1,-4.434908554E-2
5.472435163E0,-9.125022292E-1,2.876061797E-1,-1.285049021E-1
5.477492715E0,-7.564410567E-1,3.680335581E-1,-1.966817677E-1
5.482550267E0,-6.009126306E-1,4.340798855E-1,-2.504775822E-1
5.487607819E0,-4.629610479E-1,5.065178275E-1,-2.968165278E-1
5.492666882E0,-3.473799527E-1,5.885431767E-1,-3.335681260E-1
5.497724434E0,-2.365925312E-1,6.726989746E-1,-3.538081348E-1
5.502781986E0,-1.321966946E-1,7.424737215E-1,-3.564712703E-1
5.507839590E0,-3.472509235E-2,7.776274085E-1,-3.458186686E-1
5.512897090E0,6.807282567E-2,7.717684507E-1,-3.351660073E-1
5.517954642E0,1.666097194E-1,7.398105264E-1,-3.239807487E-1
5.523014434E0,2.768644691E-1,7.238315940E-1,-3.175891638E-1
5.528071986E0,4.052287340E-1,7.110484838E-1,-3.143933713E-1
5.533129538E0,5.405172706E-1,6.987979412E-1,-3.127954900E-1
5.538187090E0,6.923173070E-1,7.062547803E-1,-3.064039052E-1
5.543244642E0,8.531721234E-1,7.291579247E-1,-3.064039052E-1
5.548302194E0,1.020418406E0,7.568547130E-1,-3.085344136E-1
5.553358184E0,1.185534358E0,7.866821289E-1,-3.223828673E-1
5.558415736E0,1.349584937E0,8.229011297E-1,-3.394270837E-1
5.563473340E0,1.517896533E0,8.543263674E-1,-3.527428508E-1
5.568530840E0,1.677153349E0,8.788274527E-1,-3.633955121E-1
5.573588392E0,1.841736674E0,8.980022073E-1,-3.793744445E-1
5.578645944E0,2.010580540E0,9.081221819E-1,-3.926902413E-1
5.583706101E0,2.174631357E0,9.086548686E-1,-4.049407840E-1
5.588763653E0,2.323768139E0,9.022632241E-1,-4.155934155E-1
5.593821205E0,2.463850260E0,9.123832583E-1,-4.214523733E-1
5.598878809E0,2.587953568E0,9.139811397E-1,-4.155934155E-1
5.603936309E0,2.705664873E0,9.033284783E-1,-3.964186609E-1
5.608993861E0,2.828703165E0,9.283621907E-1,-3.687218428E-1
5.614047819E0,2.956534624E0,9.826906323E-1,-3.287744522E-1
5.619105423E0,3.082235813E0,1.047139049E0,-2.856312692E-1
5.624162923E0,3.222850561E0,1.131827474E0,-2.574017942E-1
5.629220476E0,3.339497089E0,1.193612814E0,-2.371617705E-1
5.634278028E0,3.435370445E0,1.176568627E0,-2.318354696E-1
5.639335580E0,3.506743431E0,1.100934982E0,-2.446186244E-1
5.644395944E0,3.557343245E0,9.949411154E-1,-2.808375955E-1
5.649453548E0,3.602616787E0,8.878822327E-1,-3.250460327E-1
5.654511048E0,3.646292686E0,7.893452644E-1,-3.719176054E-1
5.659568653E0,3.697957993E0,7.057220936E-1,-4.235828817E-1
5.664626153E0,3.740568638E0,6.391431093E-1,-4.747155607E-1
5.669683705E0,3.773591757E0,5.975978971E-1,-5.162608624E-1
5.674741778E0,3.802353859E0,5.794883966E-1,-5.487514138E-1
5.679799330E0,3.824724197E0,5.560526252E-1,-5.641977191E-1
5.684856882E0,3.839638233E0,4.985283315E-1,-5.540776849E-1
5.689914434E0,3.847627640E0,3.999914527E-1,-5.162608624E-1
5.694971986E0,3.840170860E0,2.726924717E-1,-4.613997638E-1
5.700029538E0,3.814604521E0,1.576440334E-1,-4.086692333E-1
5.705084642E0,3.782114029E0,9.692399204E-2,-3.692544699E-1
5.710142194E0,3.762939215E0,1.118376777E-1,-3.452860415E-1
5.715199746E0,3.764537096E0,1.778840423E-1,-3.330354989E-1
5.720257298E0,3.791701317E0,2.668335438E-1,-3.223828673E-1
5.725314851E0,3.845496893E0,3.493914604E-1,-3.048059940E-1
5.730372403E0,3.911543369E0,3.962630332E-1,-2.733807266E-1
5.735432559E0,3.969600201E0,3.760230541E-1,-2.163891494E-1
5.740490111E0,3.993036032E0,2.849429846E-1,-1.370270103E-1
5.745547663E0,3.974926472E0,1.720250845E-1,-6.032803282E-2
5.750605215E0,3.911543369E0,1.038482115E-1,1.424040925E-2
5.755662767E0,3.819930792E0,8.840189129E-2,7.389517128E-2
5.760720319E0,3.714469671E0,8.573872596E-2,1.250278056E-1
5.765779955E0,3.610073805E0,8.094503731E-2,1.713667810E-1
5.770837507E0,3.517928362E0,6.975977868E-2,2.209015340E-1
5.775895059E0,3.434305429E0,3.886714205E-2,2.762952149E-1
5.780952663E0,3.365595818E0,-6.939192768E-3,3.279605210E-1
5.786010163E0,3.290494919E0,-7.351817191E-2,3.774952590E-1
5.791067715E0,3.210600138E0,-1.608697623E-1,4.371500313E-1
5.796097351E0,3.113661051E0,-2.450255752E-1,5.095879436E-1
5.801154851E0,3.009265423E0,-3.046803474E-1,5.889500380E-1
5.806212455E0,2.903271437E0,-3.616719246E-1,6.651163697E-1
5.811270007E0,2.798875570E0,-4.346424937E-1,7.237058878E-1
5.816327507E0,2.698208094E0,-5.209288597E-1,7.673816681E-1
5.821385059E0,2.604997635E0,-6.093456745E-1,8.025354147E-1
5.826449121E0,2.503265142E0,-6.785878539E-1,8.424827456E-1
5.831506673E0,2.397803783E0,-7.057520151E-1,8.808321953E-1
5.836564226E0,2.276363850E0,-6.929688454E-1,9.069312215E-1
5.841621778E0,2.138945103E0,-6.429014802E-1,9.095943570E-1
5.846679330E0,1.991938829E0,-5.667351484E-1,8.850933313E-1
5.851736830E0,1.843334556E0,-4.831120074E-1,8.270364404E-1
5.856862663E0,1.695795536E0,-3.904340565E-1,7.338258624E-1
5.861920267E0,1.560507059E0,-2.860382497E-1,6.134511232E-1
5.866977767E0,1.426816463E0,-1.656634510E-1,4.984026849E-1
5.872035319E0,1.310170054E0,-5.168025568E-2,4.137142301E-1
5.877092871E0,1.210568070E0,3.194292262E-2,3.684405088E-1
5.882150423E0,1.119488001E0,9.106504172E-2,3.593857586E-1
5.887168444E0,1.025744796E0,1.507198215E-1,3.583205342E-1
5.892225996E0,9.224142432E-1,2.188966870E-1,3.471352458E-1
5.897283548E0,8.073657751E-1,2.908019423E-1,3.183731437E-1
5.902341101E0,6.704794168E-1,3.392714560E-1,2.853499651E-1
5.907398653E0,5.080267191E-1,3.499240875E-1,2.512615323E-1
5.912456153E0,3.066918552E-1,2.913345993E-1,2.443373203E-1
5.917525215E0,7.606230676E-2,1.757535189E-1,2.832194567E-1
5.922582767E0,-1.689482927E-1,2.608397789E-2,3.540594876E-1
5.927640371E0,-3.990452290E-1,-1.129329205E-1,3.972026408E-1
5.932697871E0,-5.950536728E-1,-2.024150342E-1,3.833542168E-1
5.937755423E0,-7.452558279E-1,-2.295792550E-1,3.157099783E-1
5.942812976E0,-8.475211263E-1,-1.731203049E-1,2.187709957E-1
5.947903548E0,-9.119695425E-1,-2.930972539E-2,1.324846447E-1
5.952961101E0,-9.577758908E-1,1.656334996E-1,7.709096372E-2
5.958018653E0,-1.006778002E0,3.547177613E-1,5.312252790E-2
5.963076205E0,-1.079215884E0,4.772230685E-1,7.229727507E-2
5.968133757E0,-1.187340140E0,5.081157088E-1,9.466780722E-2
5.973191309E0,-1.332216024E0,4.889409542E-1,6.270989776E-2
5.978210423E0,-1.484548688E0,5.118441582E-1,-3.476171196E-2
5.983267976E0,-1.627294064E0,5.917389393E-1,-1.471470147E-1
5.988325528E0,-1.738081336E0,6.593831778E-1,-2.227807343E-1
5.993383080E0,-1.816378236E0,6.572526097E-1,-2.600649297E-1
5.998440632E0,-1.866978288E0,6.034568548E-1,-2.813702226E-1
6.003498184E0,-1.908523560E0,5.331494212E-1,-2.978818119E-1
6.008529382E0,-1.939416170E0,4.639072716E-1,-3.053386509E-1
6.013586934E0,-1.953797340E0,4.207640886E-1,-3.005449474E-1
6.018644538E0,-1.951666713E0,4.095788300E-1,-2.925554812E-1
6.023702038E0,-1.943677187E0,3.967956901E-1,-2.914902270E-1
6.028759590E0,-1.919708848E0,3.509893417E-1,-3.000123203E-1
6.033817142E0,-1.878696203E0,2.609745860E-1,-3.165239394E-1
6.038954746E0,-1.843542457E0,1.549808681E-1,-3.335681260E-1
6.044012246E0,-1.817443609E0,3.726923838E-2,-3.362312913E-1
6.049069798E0,-1.801464558E0,-1.081392318E-1,-3.032081425E-1
6.054127351E0,-1.789214015E0,-2.535476983E-1,-2.376944125E-1
6.059184903E0,-1.783354998E0,-3.547477424E-1,-1.583322734E-1
6.064242403E0,-1.781757116E0,-4.154677391E-1,-6.938277185E-2
6.069290528E0,-1.779094100E0,-4.452951252E-1,1.690356620E-2
6.074348028E0,-1.772702456E0,-4.490235448E-1,9.200464934E-2
6.079405580E0,-1.763647795E0,-4.868404269E-1,1.484636068E-1
6.084463132E0,-1.757788777E0,-5.944319963E-1,1.756278276E-1
6.089520684E0,-1.763115048E0,-7.584825754E-1,1.676383466E-1
6.094578184E0,-1.787616134E0,-9.214679003E-1,1.282235980E-1
6.099635736E0,-1.827563524E0,-1.026396394E0,6.217726693E-2
6.104664538E0,-1.877630949E0,-1.041842699E0,-1.185854711E-2
6.109722090E0,-1.936753035E0,-9.864489436E-1,-7.950277627E-2
6.114779590E0,-2.003865004E0,-9.028258324E-1,-1.428859532E-1
6.119837142E0,-2.077368021E0,-8.351815343E-1,-2.089322954E-1
6.124894694E0,-2.165252209E0,-8.303878903E-1,-2.707175910E-1
6.129952246E0,-2.252071381E0,-9.022931457E-1,-3.213175833E-1
6.134987403E0,-2.327172518E0,-1.030657411E0,-3.511449993E-1
6.140044955E0,-2.386294603E0,-1.157956362E0,-3.586018085E-1
6.145102455E0,-2.428905010E0,-1.233057499E0,-3.506123424E-1
6.150160059E0,-2.456601858E0,-1.232524753E0,-3.239807487E-1
6.155217559E0,-2.463526249E0,-1.137716413E0,-2.733807266E-1
6.160275111E0,-2.443818569E0,-9.491647482E-1,-2.068017721E-1
6.165335476E0,-2.403338671E0,-6.924362183E-1,-1.386249065E-1
6.170393028E0,-2.363391399E0,-4.261204004E-1,-6.725224108E-2
6.175450528E0,-2.330900669E0,-2.242529392E-1,1.903409325E-2
6.180508132E0,-2.317584991E0,-1.353034377E-1,1.212994009E-1
6.185565632E0,-2.333564043E0,-1.459560692E-1,2.315541655E-1
6.190623184E0,-2.366587162E0,-2.029476762E-1,3.252973557E-1
6.195677455E0,-2.398545027E0,-2.524824142E-1,3.860173523E-1
6.200734955E0,-2.423045874E0,-2.492866367E-1,4.169099927E-1
6.205792507E0,-2.438492537E0,-2.050781995E-1,3.998657763E-1
6.210850111E0,-2.445949316E0,-1.752508283E-1,3.279605210E-1
6.215907663E0,-2.439024925E0,-1.880339831E-1,2.496636361E-1
6.220965163E0,-2.431035519E0,-2.503519058E-1,1.995962560E-1
6.226023444E0,-2.438492537E0,-3.638024926E-1,1.766930819E-1
6.231080996E0,-2.461395502E0,-5.145372152E-1,1.761604548E-1
6.236138548E0,-2.498147011E0,-6.572825313E-1,1.948025674E-1
6.241196101E0,-2.547682047E0,-7.334489226E-1,2.113141567E-1
6.246253653E0,-2.589759827E0,-7.196004391E-1,2.363478541E-1
6.251311205E0,-2.617989302E0,-6.199982762E-1,2.826867998E-1
6.256370840E0,-2.629707098E0,-4.511540830E-1,3.407436907E-1
6.261428392E0,-2.627576828E0,-2.396992594E-1,4.147794843E-1
6.266485892E0,-2.630772591E0,-3.570130840E-2,4.984026849E-1
6.271543444E0,-2.647284031E0,1.091745272E-1,5.878847837E-1
6.276601048E0,-2.680840015E0,1.656334996E-1,6.597900391E-1
6.281658548E0,-2.734635592E0,1.358061284E-1,7.151837945E-1
6.286706986E0,-2.795355797E0,2.555134706E-2,7.476743460E-1
6.291764538E0,-2.855010271E0,-1.198571324E-1,7.700448632E-1
6.296822038E0,-2.903479815E0,-2.663308680E-1,7.929480076E-1
6.301879590E0,-2.954612732E0,-4.144024849E-1,8.014701009E-1
6.306937142E0,-3.010006189E0,-5.656698346E-1,7.817627788E-1
6.311994694E0,-3.046225071E0,-6.993604898E-1,7.567290664E-1
6.317060996E0,-3.060606241E0,-7.920383811E-1,7.167816758E-1
6.322118548E0,-3.059540987E0,-8.208004832E-1,6.565942764E-1
6.327176048E0,-3.028648376E0,-7.781899571E-1,5.889500380E-1
6.332233601E0,-2.974319935E0,-6.966972351E-1,5.282300711E-1
6.337291153E0,-2.913067102E0,-6.024214625E-1,4.781626463E-1
6.342348705E0,-2.841161966E0,-4.873730540E-1,4.376826584E-1
6.347408705E0,-2.763930559E0,-3.893688023E-1,3.929415941E-1
6.352466257E0,-2.693090439E0,-3.270508647E-1,3.556573391E-1
6.357523809E0,-2.632902861E0,-3.004193008E-1,3.242320716E-1
6.362581309E0,-2.563128233E0,-2.412971556E-1,2.853499651E-1
6.367638913E0,-2.485896587E0,-1.353034377E-1,2.613815367E-1
6.372696413E0,-2.398545027E0,-1.439603791E-2,2.528594434E-1
6.377754955E0,-2.278170347E0,1.304798126E-1,2.667078674E-1
6.382812507E0,-2.111989021E0,3.057156503E-1,3.050573468E-1
6.387870059E0,-1.911719322E0,4.420693815E-1,3.535268307E-1
6.392927559E0,-1.700797200E0,5.038546920E-1,3.913436830E-1
6.397985111E0,-1.492538214E0,4.836146533E-1,4.185079038E-1
6.403042663E0,-1.277354956E0,4.154377878E-1,4.211710691E-1
6.408100111E0,-1.034474850E0,3.227598667E-1,3.854847550E-1
6.413157663E0,-7.788115740E-1,2.449956387E-1,3.130468130E-1
6.418215163E0,-5.210178494E-1,2.119724751E-1,2.091836184E-1
6.423272715E0,-2.850620151E-1,2.322124839E-1,1.021246538E-1
6.428330267E0,-7.413984835E-2,3.243577480E-1,2.968672849E-2
6.433387819E0,1.144117936E-1,4.495262206E-1,3.587774001E-3
6.438451934E0,2.987023890E-1,5.842821002E-1,-7.597493008E-3
6.443509642E0,4.776666462E-1,7.142441869E-1,-8.662756532E-3
6.448567298E0,6.385214925E-1,8.266295195E-1,4.120405763E-3
6.453624955E0,7.807341814E-1,8.735011220E-1,2.489304356E-2
6.458682663E0,9.192184210E-1,8.612506390E-1,4.726358131E-2
6.463740319E0,1.056104779E0,8.138463497E-1,7.442780584E-2
6.468778496E0,1.190327883E0,7.643116117E-1,9.573306888E-2
6.473836153E0,1.326149106E0,7.153095007E-1,9.573306888E-2
6.478893809E0,1.474220753E0,6.742968559E-1,6.803622097E-2
6.483951465E0,1.632412434E0,6.151747704E-1,2.063198946E-2
6.489009173E0,1.796462893E0,5.336820483E-1,-5.074066296E-2
6.494066830E0,1.957850337E0,4.580483139E-1,-1.338312179E-1
6.499150007E0,2.098997593E0,4.074482918E-1,-2.195849270E-1
6.504207663E0,2.227361679E0,3.643051386E-1,-3.064039052E-1
6.509265319E0,2.341344833E0,3.328798413E-1,-3.884291947E-1
6.514323028E0,2.429761887E0,3.200967014E-1,-4.629976451E-1
6.519380736E0,2.501134396E0,3.062482774E-1,-5.242503285E-1
6.524438392E0,2.562387228E0,2.897366881E-1,-5.796440244E-1
6.529495632E0,2.626302958E0,2.790840566E-1,-6.238524914E-1
6.534553288E0,2.699273586E0,2.982587814E-1,-6.558103561E-1
6.539610944E0,2.785027266E0,3.472609222E-1,-6.877682209E-1
6.544668653E0,2.884096622E0,4.356777966E-1,-7.090735435E-1
6.549726361E0,2.976774693E0,5.730968118E-1,-7.101387978E-1
6.554784017E0,3.060930252E0,7.531263232E-1,-6.994861364E-1
6.559868028E0,3.137096882E0,9.400801063E-1,-6.717892885E-1
6.564925684E0,3.202077866E0,1.097206473E0,-6.265156269E-1
6.569983392E0,3.245753527E0,1.196275949E0,-5.663282275E-1
6.575041048E0,3.276113749E0,1.241549730E0,-5.040103197E-1
6.580098757E0,3.301680088E0,1.233027577E0,-4.555408061E-1
6.585156413E0,3.325648308E0,1.156328559E0,-4.033429027E-1
6.590193809E0,3.354410648E0,1.015713811E0,-3.516776264E-1
6.595251517E0,3.401282072E0,8.548589945E-1,-3.319702446E-1
6.600309173E0,3.469458818E0,7.222337127E-1,-3.415576220E-1
6.605366830E0,3.571191549E0,6.348820925E-1,-3.687218428E-1
6.610424538E0,3.681979179E0,5.794883966E-1,-3.942881525E-1
6.615482194E0,3.792233706E0,5.411389470E-1,-4.060060382E-1
6.620522142E0,3.891836166E0,5.139746666E-1,-4.065386653E-1
6.625579851E0,3.977056980E0,4.724293947E-1,-3.894944787E-1
6.630637559E0,4.034581661E0,4.047851562E-1,-3.500797153E-1
6.635695215E0,4.062810898E0,3.286187947E-1,-3.010776043E-1
6.640752871E0,4.055354118E0,2.593766749E-1,-2.440859973E-1
6.645810528E0,4.019134998E0,2.007872015E-1,-1.801701784E-1
6.650882038E0,3.958415031E0,1.384692937E-1,-1.093301550E-1
6.655939694E0,3.873726606E0,7.828188688E-2,-3.476171196E-2
6.660997403E0,3.785309792E0,2.981239744E-2,2.862146497E-2
6.666055059E0,3.700088501E0,-1.226551086E-2,7.922148705E-2
6.671112767E0,3.634574890E0,-7.032237947E-2,1.218320280E-1
6.676170423E0,3.588768482E0,-1.640655547E-1,1.559204608E-1
6.681276465E0,3.564267397E0,-2.929624617E-1,1.825520396E-1
6.686334121E0,3.545092821E0,-4.516867101E-1,2.075857371E-1
6.691391778E0,3.516330719E0,-6.104109287E-1,2.400762588E-1
6.696449486E0,3.476383209E0,-6.950994134E-1,2.906762958E-1
6.701507142E0,3.434305429E0,-6.844467521E-1,3.545921147E-1
6.706564798E0,3.392760038E0,-6.253246665E-1,4.131815732E-1
6.711576673E0,3.368258953E0,-5.667351484E-1,4.541942477E-1
6.716634330E0,3.359736919E0,-5.310488343E-1,4.685752988E-1
6.721691986E0,3.370389700E0,-5.134719610E-1,4.573900104E-1
6.726749642E0,3.368791580E0,-5.337119699E-1,4.334216118E-1
6.731807351E0,3.343225241E0,-6.082804203E-1,4.099858105E-1
6.736865007E0,3.270787239E0,-7.275899053E-1,3.961373866E-1
6.741933236E0,3.147749424E0,-8.490299582E-1,3.977352679E-1
6.746990944E0,2.979970455E0,-9.235984683E-1,3.950721025E-1
6.752048601E0,2.786625147E0,-9.305226207E-1,3.812236786E-1
6.757106309E0,2.589551449E0,-8.772594333E-1,3.535268307E-1
6.762163965E0,2.404195547E0,-7.803204656E-1,2.991983891E-1
6.767221673E0,2.233220577E0,-6.572825313E-1,2.246299386E-1
6.772257611E0,2.079290152E0,-5.321140885E-1,1.575183570E-1
6.777315319E0,1.932283998E0,-4.213266969E-1,1.170383468E-1
6.782372976E0,1.778886080E0,-3.275835216E-1,1.101141274E-1
6.787430684E0,1.621759653E0,-2.524824142E-1,1.287562251E-1
6.792488340E0,1.464100718E0,-1.997518688E-1,1.718994081E-1
6.797545996E0,1.304843783E0,-1.677939743E-1,2.267604768E-1
6.802605423E0,1.145586967E0,-1.598045081E-1,2.821541727E-1
6.807663080E0,1.001243711E0,-1.805771291E-1,3.300910294E-1
6.812720788E0,8.600962758E-1,-2.311771512E-1,3.615162969E-1
6.817778444E0,7.157530785E-1,-3.084087670E-1,3.742994666E-1
6.822836153E0,5.639530420E-1,-3.930972219E-1,3.540594876E-1
6.827893809E0,4.015002847E-1,-4.218593538E-1,3.221015632E-1
6.832990632E0,2.353191972E-1,-3.893688023E-1,2.778931260E-1
6.838048340E0,7.180125266E-2,-3.313119411E-1,2.145099491E-1
6.843105996E0,-8.159669489E-2,-2.546129525E-1,1.458004415E-1
6.848163705E0,-2.349946201E-1,-1.630002856E-1,7.602569461E-2
6.853221361E0,-3.883925974E-1,-5.540868267E-2,1.530567277E-2
6.858279017E0,-5.396599174E-1,4.525871947E-2,-3.955539688E-2
6.863299226E0,-6.856009960E-1,1.310124397E-1,-9.494909644E-2
6.868356934E0,-8.219547868E-1,2.178314179E-1,-1.583322734E-1
6.873414590E0,-9.343401194E-1,3.280861974E-1,-2.254438847E-1
6.878472246E0,-1.021691680E0,4.431346357E-1,-2.882944345E-1
6.883529955E0,-1.099455833E0,5.374104381E-1,-3.293070793E-1
6.888587611E0,-1.191601276E0,6.125115156E-1,-3.511449993E-1
6.893640580E0,-1.309312820E0,6.551221609E-1,-3.516776264E-1
6.898698236E0,-1.464308619E0,6.418063641E-1,-3.266439140E-1
6.903755944E0,-1.651262403E0,5.736294389E-1,-2.861638963E-1
6.908813653E0,-1.849401474E0,4.702988565E-1,-2.323680967E-1
6.913871309E0,-2.045410156E0,3.792188168E-1,-1.801701784E-1
6.918928965E0,-2.221711159E0,3.216945827E-1,-1.434185952E-1
6.923987507E0,-2.352738619E0,3.275535405E-1,-1.375596523E-1
6.929045215E0,-2.422513485E0,3.877409399E-1,-1.551364958E-1
6.934102871E0,-2.429437637E0,4.596462250E-1,-1.689849198E-1
6.939160528E0,-2.383631468E0,5.054525733E-1,-1.514080614E-1
6.944218236E0,-2.317052364E0,5.198336244E-1,-1.141238436E-1
6.949275892E0,-2.249940634E0,5.134420991E-1,-6.032803282E-2
6.954331882E0,-2.183894396E0,4.889409542E-1,-1.205911743E-3
6.959389590E0,-2.122109175E0,4.564504325E-1,4.566568136E-2
6.964447246E0,-2.064584732E0,4.063830376E-1,7.975412160E-2
6.969504955E0,-2.007593393E0,3.067809045E-1,1.005267575E-1
6.974562611E0,-1.949003577E0,1.688293070E-1,9.360254556E-2
6.979620319E0,-1.901599288E0,3.354081884E-2,3.607831150E-2
6.984680059E0,-1.876033068E0,-7.458343357E-2,-6.192592531E-2
6.989737767E0,-1.878696203E0,-1.390318573E-1,-1.780396551E-1
6.994795423E0,-1.900534153E0,-1.544781774E-1,-2.888270617E-1
6.999853132E0,-1.942079425E0,-1.539455503E-1,-3.777765632E-1
7.004910788E0,-1.998005629E0,-1.779139787E-1,-4.321050048E-1
7.009968496E0,-2.061389208E0,-2.402318865E-1,-4.571387172E-1
7.015021153E0,-2.125837564E0,-3.323771954E-1,-4.603344798E-1
7.020078809E0,-2.191883802E0,-4.389035702E-1,-4.454208016E-1
7.025136517E0,-2.245146990E0,-5.379730463E-1,-4.257134199E-1
7.030194173E0,-2.282963991E0,-6.109436154E-1,-4.049407840E-1
7.035251882E0,-2.296812296E0,-6.413035989E-1,-3.862986863E-1
7.040309538E0,-2.283496618E0,-6.343793869E-1,-3.570039272E-1
7.045374434E0,-2.249408007E0,-6.311835647E-1,-3.111976087E-1
7.050432142E0,-2.197210312E0,-6.466298699E-1,-2.600649297E-1
7.055489798E0,-2.135424852E0,-6.833814383E-1,-2.073343992E-1
7.060547507E0,-2.078433514E0,-7.334489226E-1,-1.652565002E-1
7.065605163E0,-2.031561613E0,-7.670046687E-1,-1.386249065E-1
7.070662819E0,-2.001201391E0,-7.446341515E-1,-1.348964870E-1
7.075718184E0,-1.981494069E0,-6.492930651E-1,-1.562017500E-1
7.080775892E0,-1.974037290E0,-5.411688089E-1,-1.924207211E-1
7.085833548E0,-1.979363561E0,-4.666003883E-1,-2.387596816E-1
7.090891205E0,-2.004930019E0,-4.479582906E-1,-2.877618074E-1
7.095948861E0,-2.050736427E0,-4.618067443E-1,-3.404923379E-1
7.101006569E0,-2.114652157E0,-4.799161851E-1,-3.729828894E-1
7.106062090E0,-2.189220667E0,-5.001562238E-1,-3.788418174E-1
7.111119798E0,-2.271778584E0,-5.448971987E-1,-3.479491770E-1
7.116177455E0,-2.363391399E0,-6.226614714E-1,-2.803049684E-1
7.121235111E0,-2.448612452E0,-7.041541338E-1,-1.865617633E-1
7.126292819E0,-2.514126062E0,-7.691351771E-1,-7.790488005E-2
7.131350528E0,-2.563660860E0,-8.058868051E-1,2.915409766E-2
7.136431153E0,-2.603075504E0,-7.888425589E-1,1.197014973E-1
7.141488809E0,-2.642490387E0,-7.041541338E-1,1.868131012E-1
7.146546465E0,-2.661665201E0,-5.789856315E-1,2.352825850E-1
7.151604173E0,-2.648349285E0,-4.543498755E-1,2.869478762E-1
7.156661830E0,-2.600412369E0,-3.414319456E-1,3.652447164E-1
7.161719538E0,-2.542888165E0,-2.615371943E-1,4.483352900E-1
7.166799434E0,-2.509332418E0,-2.199918777E-1,5.250342488E-1
7.171857038E0,-2.519985199E0,-2.269161046E-1,5.756342411E-1
7.176914746E0,-2.560997725E0,-3.036150932E-1,5.894826651E-1
7.181972455E0,-2.614793539E0,-4.495561719E-1,5.932111144E-1
7.187030111E0,-2.670719862E0,-6.492930651E-1,5.948089361E-1
7.192087767E0,-2.735168219E0,-8.799226284E-1,5.937437415E-1
7.197107611E0,-2.804410458E0,-1.086583734E0,5.990700722E-1
7.202165267E0,-2.857673645E0,-1.199501753E0,6.022658348E-1
7.207222923E0,-2.889631510E0,-1.175533175E0,5.900152922E-1
7.212280632E0,-2.908273458E0,-1.063147902E0,5.884174109E-1
7.217338340E0,-2.919458866E0,-9.129458070E-1,6.027984619E-1
7.222395996E0,-2.922122240E0,-7.579499483E-1,6.214405298E-1
7.227438653E0,-2.904545307E0,-6.130741239E-1,6.560616493E-1
7.232496361E0,-2.869391441E0,-4.431646168E-1,6.890848279E-1
7.237554017E0,-2.815063000E0,-2.242529392E-1,7.173142433E-1
7.242611673E0,-2.734103203E0,3.180810483E-3,7.327606082E-1
7.247669382E0,-2.653675556E0,2.066461444E-1,7.295648456E-1
7.252727038E0,-2.581237555E0,3.632398844E-1,7.322279811E-1
7.257840267E0,-2.519452572E0,4.479283094E-1,7.498047948E-1
7.262897923E0,-2.449145079E0,4.681683481E-1,7.508701086E-1
7.267955580E0,-2.355934381E0,4.639072716E-1,7.221079469E-1
7.273013288E0,-2.244614363E0,4.729620218E-1,6.784321666E-1
7.278070944E0,-2.127968073E0,4.852125645E-1,6.230384707E-1
7.283128601E0,-2.009723902E0,4.729620218E-1,5.362194777E-1
7.288158913E0,-1.888816237E0,4.740272760E-1,4.270300269E-1
7.293216569E0,-1.775365710E0,4.798862338E-1,3.066552281E-1
7.298274226E0,-1.667773962E0,4.484609365E-1,1.809541434E-1
7.303331934E0,-1.547399282E0,4.564504325E-1,5.631832033E-2
7.308389590E0,-1.423828721E0,5.379431248E-1,-4.115329310E-2
7.313447298E0,-1.296529651E0,6.609810591E-1,-1.061343625E-1
7.318466673E0,-1.159643292E0,8.159768581E-1,-1.375596523E-1
7.323524382E0,-1.002516866E0,9.661790133E-1,-1.498101801E-1
7.328582038E0,-8.230200410E-1,1.107326388E0,-1.317006946E-1
7.333639746E0,-6.238157749E-1,1.201602340E0,-9.494909644E-2
7.338697403E0,-4.139589071E-1,1.229299068E0,-4.861013964E-2
7.343755059E0,-2.115588337E-1,1.218646526E0,3.055142472E-3
7.348818809E0,-3.206193447E-2,1.156861186E0,4.566568136E-2
7.353876465E0,1.303907484E-1,1.013583302E0,6.111200154E-2
7.358934173E0,2.875171006E-1,8.218358159E-1,3.661094233E-2
7.363991830E0,4.419803023E-1,6.391431093E-1,-1.185854711E-2
7.369049538E0,5.921825171E-1,4.947999418E-1,-6.458909065E-2
7.374107194E0,7.322646976E-1,3.749577701E-1,-1.141238436E-1
7.379215319E0,8.760752678E-1,2.828124762E-1,-1.753764898E-1
7.384272976E0,1.026277423E0,2.561808825E-1,-2.297049463E-1
7.389330632E0,1.167424798E0,2.849429846E-1,-2.691196799E-1
7.394388340E0,1.305909157E0,3.632398844E-1,-2.888270617E-1
7.399446048E0,1.439067125E0,4.729620218E-1,-2.808375955E-1
7.404503705E0,1.565833449E0,5.975978971E-1,-2.462165207E-1
7.409511986E0,1.685142875E0,7.078526616E-1,-1.988123059E-1
7.414569642E0,1.801256657E0,7.808231711E-1,-1.348964870E-1
7.419627351E0,1.917370319E0,8.101179004E-1,-6.512171775E-2
7.424685007E0,2.021765947E0,8.085200191E-1,2.522510709E-3
7.429742715E0,2.126161814E0,7.861495614E-1,6.697095186E-2
7.434800371E0,2.231090307E0,7.616484165E-1,1.037225500E-1
7.439873444E0,2.347203970E0,7.099831700E-1,1.074509695E-1
7.444931153E0,2.479829311E0,6.242294312E-1,7.229727507E-2
7.449988809E0,2.622041941E0,5.091810226E-1,1.370777749E-2
7.455046517E0,2.768515587E0,4.074482918E-1,-6.938277185E-2
7.460104173E0,2.918185234E0,3.360756636E-1,-1.663217694E-1
7.465161882E0,3.048679829E0,2.844103873E-1,-2.558038831E-1
7.470214017E0,3.155738831E0,2.657682598E-1,-3.399597108E-1
7.475271726E0,3.256406546E0,3.264882863E-1,-4.092018306E-1
7.480329382E0,3.346953869E0,4.431346357E-1,-4.555408061E-1
7.485387090E0,3.406075954E0,5.778905153E-1,-4.608671367E-1
7.490444746E0,3.439099073E0,7.142441869E-1,-4.379639626E-1
7.495502455E0,3.462002039E0,8.633810878E-1,-3.974839449E-1
7.500557194E0,3.485437870E0,9.896148443E-1,-3.314375877E-1
7.505614903E0,3.499819040E0,1.029562235E0,-2.483470440E-1
7.510672611E0,3.495558023E0,9.651137590E-1,-1.711154431E-1
7.515730267E0,3.472654819E0,8.474021554E-1,-1.199827865E-1
7.520787976E0,3.445490599E0,7.280926704E-1,-1.008080468E-1
7.525845632E0,3.431642294E0,6.524589062E-1,-1.082648933E-1
7.530916517E0,3.441762209E0,6.529915929E-1,-1.434185952E-1
7.535974226E0,3.468393803E0,7.360821366E-1,-1.908228099E-1
7.541031882E0,3.504080057E0,8.623158336E-1,-2.297049463E-1
7.546089538E0,3.540298939E0,9.736358523E-1,-2.424881011E-1
7.551147246E0,3.571191549E0,1.038616896E0,-2.291723043E-1
7.556204955E0,3.587170601E0,1.038616896E0,-1.908228099E-1
7.561236413E0,3.582909584E0,9.448738098E-1,-1.338312179E-1
7.566294121E0,3.552549601E0,7.584526539E-1,-6.512171775E-2
7.571351726E0,3.506210566E0,5.182357430E-1,-2.271174919E-3
7.576409486E0,3.471589565E0,3.051830232E-1,3.075199202E-2
7.581467142E0,3.481176853E0,2.007872015E-1,4.193726182E-2
7.586524798E0,3.529646397E0,2.098419368E-1,4.300252348E-2
7.591592871E0,3.588236094E0,2.689640522E-1,4.300252348E-2
7.596650580E0,3.631379128E0,3.366082907E-1,3.980673477E-2
7.601708288E0,3.643629551E0,3.983935714E-1,3.501304984E-2
7.606765944E0,3.626052618E0,4.340798855E-1,3.714357689E-2
7.611823601E0,3.579713821E0,3.946651220E-1,6.111200154E-2
7.616881309E0,3.504612684E0,2.380714267E-1,1.175709739E-1
7.621957559E0,3.400217056E0,2.395345084E-2,2.006615102E-1
7.627015267E0,3.280374765E0,-1.496844888E-1,3.087857664E-1
7.632072923E0,3.158934832E0,-2.370360941E-1,4.248994887E-1
7.637130580E0,3.036962032E0,-2.365034819E-1,5.085226297E-1
7.642188288E0,2.930435658E0,-1.938929260E-1,5.468721390E-1
7.647245944E0,2.856399775E0,-1.342381686E-1,5.479373932E-1
7.652357194E0,2.807397604E0,-7.777921855E-2,5.218384266E-1
7.657414903E0,2.779168367E0,-5.540868267E-2,4.888153076E-1
7.662472559E0,2.746677637E0,-7.777921855E-2,4.664447606E-1
7.667530215E0,2.693947315E0,-1.400971264E-1,4.648468494E-1
7.672587923E0,2.614052534E0,-2.056108266E-1,4.845542610E-1
7.677645632E0,2.512852430E0,-2.205245197E-1,5.095879436E-1
7.682650684E0,2.409521818E0,-1.986866146E-1,5.367521644E-1
7.687708340E0,2.317909002E0,-1.901645064E-1,5.591226816E-1
7.692766048E0,2.235351324E0,-2.072087228E-1,5.692426562E-1
7.697823757E0,2.151727915E0,-2.375687361E-1,5.751016140E-1
7.702881413E0,2.045201778E0,-2.476887405E-1,5.761668682E-1
7.707939121E0,1.914174438E0,-2.077413648E-1,5.660468936E-1
7.712988184E0,1.765570283E0,-9.801922739E-2,5.399479270E-1
7.718045840E0,1.604715466E0,5.644398555E-2,4.914784431E-1
7.723103548E0,1.434273362E0,2.199619412E-1,4.264973700E-1
7.728161205E0,1.260102749E0,3.536525071E-1,3.689731359E-1
7.733218913E0,1.089660525E0,4.085135758E-1,3.460699618E-1
7.738276569E0,9.138920903E-1,3.653703928E-1,3.700384200E-1
7.743360423E0,7.189489007E-1,2.316798419E-1,4.344868362E-1
7.748418080E0,5.170814991E-1,3.407345340E-2,5.111857653E-1
7.753475788E0,3.082897663E-1,-1.747181863E-1,5.575248003E-1
7.758533444E0,9.470441937E-2,-3.148003519E-1,5.319584608E-1
7.763591153E0,-1.087609157E-1,-3.302466571E-1,4.366174042E-1
7.768648809E0,-2.925188839E-1,-2.540803254E-1,2.874805033E-1
7.773693288E0,-4.608305097E-1,-1.070739627E-1,1.255604476E-1
7.778750996E0,-6.232831478E-1,1.118376777E-1,1.370777749E-2
7.783808653E0,-7.857358456E-1,3.286187947E-1,-3.635960817E-2
7.788866361E0,-9.631021619E-1,4.426019788E-1,-4.115329310E-2
7.793924017E0,-1.145262241E0,4.404714704E-1,-1.185854711E-2
7.798981726E0,-1.316769719E0,3.877409399E-1,3.075199202E-2
7.803997507E0,-1.479754925E0,3.733598590E-1,4.406778887E-2
7.809055163E0,-1.615576148E0,4.468630850E-1,2.436041273E-2
7.814112819E0,-1.697068810E0,5.773578286E-1,1.530567277E-2
7.819170528E0,-1.734885573E0,6.753621101E-1,3.288252279E-2
7.824228184E0,-1.760984540E0,6.913410425E-1,5.099200085E-2
7.829285892E0,-1.802529812E0,6.386105418E-1,4.779621214E-2
7.834370632E0,-1.865380406E0,5.512589216E-1,3.341515362E-2
7.839428340E0,-1.933024645E0,4.410041273E-1,3.128462285E-2
7.844485996E0,-1.993744731E0,3.286187947E-1,3.341515362E-2
7.849543705E0,-2.020376444E0,2.551156282E-1,3.021936119E-2
7.854601361E0,-1.993744731E0,2.338103652E-1,1.903409325E-2
7.859659069E0,-1.925035119E0,2.194293141E-1,1.457247185E-3
7.864714069E0,-1.837683558E0,1.682966650E-1,-2.517434210E-2
7.869771778E0,-1.745538235E0,7.721661776E-2,-5.180592835E-2
7.874829434E0,-1.661382437E0,-2.345077693E-2,-8.695961535E-2
7.879887090E0,-1.582552910E0,-1.065413356E-1,-1.274396330E-1
7.884944798E0,-1.518637180E0,-1.672613323E-1,-1.657891273E-1
7.890002507E0,-1.473896027E0,-2.024150342E-1,-2.009428293E-1
7.895062559E0,-1.446199179E0,-2.167961001E-1,-2.323680967E-1
7.900120267E0,-1.443003416E0,-2.061434537E-1,-2.605975568E-1
7.905177923E0,-1.458449721E0,-1.811097711E-1,-2.845660150E-1
7.910235632E0,-1.490407705E0,-1.731203049E-1,-3.042733669E-1
7.915293288E0,-1.530355096E0,-1.853708178E-1,-3.250460327E-1
7.920350996E0,-1.571900368E0,-2.120024115E-1,-3.532755077E-1
7.925406569E0,-1.612380266E0,-2.365034819E-1,-3.873639107E-1
7.930464278E0,-1.657654047E0,-2.487539947E-1,-4.203871191E-1
7.935521934E0,-1.706656098E0,-2.327750474E-1,-4.443555176E-1
7.940579590E0,-1.756190896E0,-1.763160825E-1,-4.672586918E-1
7.945637298E0,-1.807856202E0,-1.331729144E-1,-4.874987304E-1
7.950695007E0,-1.852064610E0,-1.725876629E-1,-4.960208237E-1
7.955753548E0,-1.886152983E0,-3.217245638E-1,-4.784439802E-1
7.960811205E0,-1.909588814E0,-5.278530121E-1,-4.262460768E-1
7.965868913E0,-1.926100373E0,-7.478299737E-1,-3.383618295E-1
7.970926621E0,-1.933557153E0,-9.566215873E-1,-2.249112576E-1
7.975984278E0,-1.934089899E0,-1.116943717E0,-9.228593856E-2
7.981041986E0,-1.909056187E0,-1.179261684E0,3.501304984E-2
7.986096621E0,-1.866978288E0,-1.129194379E0,1.303541213E-1
7.991154278E0,-1.821171999E0,-9.928405881E-1,1.766930819E-1
7.996211986E0,-1.779626608E0,-8.234636188E-1,1.814867705E-1
8.001269694E0,-1.771637201E0,-6.711309552E-1,1.671057343E-1
8.006327351E0,-1.815313101E0,-5.800509453E-1,1.692362577E-1
8.011385059E0,-1.921306729E0,-5.582129955E-1,2.091836184E-1
8.016445840E0,-2.076302767E0,-5.480930209E-1,2.810889184E-1
8.021503496E0,-2.268050194E0,-5.203961730E-1,3.631142080E-1
8.026561205E0,-2.469917536E0,-4.740572572E-1,4.328889847E-1
8.031618913E0,-2.653142929E0,-4.389035702E-1,4.866847694E-1
8.036676569E0,-2.781507254E0,-4.357077479E-1,5.207731724E-1
8.041734226E0,-2.857673645E0,-4.570130408E-1,5.287626386E-1
8.046792351E0,-2.908806324E0,-4.996235371E-1,5.181100368E-1
8.051850007E0,-2.952481985E0,-5.848445892E-1,5.186426640E-1
8.056907715E0,-2.986037970E0,-7.153394222E-1,5.420784354E-1
8.061965423E0,-3.005212545E0,-8.341162801E-1,5.782974362E-1
8.067023080E0,-3.016397715E0,-8.948363066E-1,6.017332077E-1
8.072080788E0,-3.013734579E0,-9.113479257E-1,6.059942842E-1
8.077136257E0,-2.991364002E0,-9.166741967E-1,5.916132331E-1
8.082193965E0,-2.942894697E0,-9.092173576E-1,5.553942323E-1
8.087251621E0,-2.882707357E0,-8.783246875E-1,4.978700280E-1
8.092309330E0,-2.828378677E0,-8.181373477E-1,4.557921588E-1
8.097366986E0,-2.789496660E0,-7.265246511E-1,4.456721246E-1
8.102424694E0,-2.787366390E0,-6.162698865E-1,4.414110780E-1
8.107482403E0,-2.827846289E0,-4.799161851E-1,4.472700059E-1
8.112540111E0,-2.896555662E0,-3.249203563E-1,4.707058072E-1
8.117597767E0,-2.986037970E0,-1.896318793E-1,5.031962991E-1
8.122655476E0,-3.070193768E0,-1.012150198E-1,5.564594865E-1
8.127713132E0,-3.128250599E0,-7.138764113E-2,6.150490046E-1
8.132770840E0,-3.178318024E0,-1.044108123E-1,6.619206071E-1
8.137829798E0,-3.199623108E0,-1.843055487E-1,6.890848279E-1
8.142887507E0,-3.183644056E0,-2.716571987E-1,6.768342853E-1
8.147945163E0,-3.143164158E0,-3.126698136E-1,6.315606236E-1
8.153002871E0,-3.095760107E0,-3.009519279E-1,5.745689869E-1
8.158060528E0,-3.053681850E0,-2.423624247E-1,5.202405453E-1
8.163118236E0,-2.991896868E0,-1.544781774E-1,4.723037183E-1
8.168176465E0,-2.901349545E0,-3.570130840E-2,4.078552723E-1
8.173234173E0,-2.792692423E0,1.187618971E-1,3.519289196E-1
8.178291830E0,-2.708536625E0,2.519198358E-1,3.141120970E-1
8.183349538E0,-2.665925980E0,2.913345993E-1,2.741647065E-1
8.188407194E0,-2.628109217E0,2.870735228E-1,2.342173159E-1
8.193464903E0,-2.582303047E0,2.476588041E-1,1.932046860E-1
8.198538496E0,-2.517854452E0,2.242229879E-1,1.447351873E-1
8.203596205E0,-2.428372383E0,2.769535184E-1,1.053204387E-1
8.208653861E0,-2.336759806E0,3.030524850E-1,7.868885994E-2
8.213711569E0,-2.232363939E0,2.599093020E-1,6.164463609E-2
8.218769226E0,-2.114119768E0,2.854756415E-1,6.590569019E-2
8.223826934E0,-1.990016222E0,2.923998535E-1,7.442780584E-2
8.228901726E0,-1.838216186E0,2.519198358E-1,7.922148705E-2
8.233959434E0,-1.646468759E0,1.901345700E-1,8.294991404E-2
8.239017090E0,-1.425959229E0,1.384692937E-1,7.016674429E-2
8.244074798E0,-1.192133904E0,1.182292700E-1,4.513305053E-2
8.249132507E0,-9.481884837E-1,1.390019208E-1,2.755620144E-2
8.254190163E0,-7.053084373E-1,2.306145877E-1,3.554568067E-2
8.259205684E0,-4.821357727E-1,3.451304138E-1,5.631832033E-2
8.264263392E0,-2.866599262E-1,4.324820042E-1,7.975412160E-2
8.269321048E0,-1.135545969E-1,4.532546401E-1,9.626570344E-2
8.274378757E0,4.889809340E-2,3.983935714E-1,1.053204387E-1
8.279436413E0,2.054918259E-1,2.923998535E-1,1.074509695E-1
8.284494121E0,3.370518684E-1,1.762861311E-1,1.197014973E-1
8.289546257E0,4.329255819E-1,6.283555925E-2,1.378109753E-1
8.294603965E0,5.037656426E-1,-4.635393992E-2,1.303541213E-1
8.299661621E0,5.756709576E-1,-1.124002859E-1,8.880885690E-2
8.304719330E0,6.688815355E-1,-1.310423762E-1,2.915409766E-2
8.309776986E0,7.791363001E-1,-1.118676513E-1,-2.144592069E-2
8.314834694E0,9.261426330E-1,-6.925711036E-2,-6.192592531E-2
8.319926413E0,1.099780560E0,2.075765841E-2,-8.056803793E-2
8.324984069E0,1.279810071E0,1.421977133E-1,-8.589435369E-2
8.330041778E0,1.465698600E0,2.364735305E-1,-9.921015054E-2
8.335099434E0,1.656913400E0,2.854756415E-1,-1.370270103E-1
8.340157142E0,1.842269182E0,2.945303619E-1,-1.886922866E-1
8.345214798E0,2.031353235E0,3.083787858E-1,-2.414228320E-1
8.350268288E0,2.211915493E0,4.010567367E-1,-2.691196799E-1
8.355325996E0,2.363182783E0,5.256925821E-1,-2.616628408E-1
8.360383705E0,2.468111277E0,6.119789481E-1,-2.318354696E-1
8.365441361E0,2.529363871E0,6.711010933E-1,-1.993449330E-1
8.370499069E0,2.568246126E0,6.987979412E-1,-1.764417589E-1
8.375556726E0,2.619378805E0,6.567199826E-1,-1.775070131E-1
8.380618132E0,2.684359789E0,5.113115311E-1,-2.062691301E-1
8.385675840E0,2.757863045E0,2.668335438E-1,-2.558038831E-1
8.390733496E0,2.826572418E0,-4.156025872E-2,-3.261112869E-1
8.395791205E0,2.930435658E0,-2.727224529E-1,-4.310397208E-1
8.400848913E0,3.069452524E0,-3.105393052E-1,-5.530124307E-1
8.405906569E0,3.194088221E0,-2.391666174E-1,-6.685935259E-1
8.411001673E0,3.279842138E0,-1.363686919E-1,-7.634019852E-1
8.416059382E0,3.324583292E0,-2.345077693E-2,-8.406336308E-1
8.421117038E0,3.342159986E0,1.054461002E-1,-8.938968182E-1
8.426174746E0,3.346421003E0,2.460608929E-1,-9.114736319E-1
8.431232455E0,3.340029478E0,3.685661852E-1,-8.875051737E-1
8.436290111E0,3.327779055E0,4.681683481E-1,-8.294482827E-1
8.441299955E0,3.296353579E0,5.395410061E-1,-7.474230528E-1
8.446357663E0,3.251612663E0,5.928041935E-1,-6.643324494E-1
8.451415371E0,3.213263035E0,6.529915929E-1,-5.897640586E-1
8.456473080E0,3.198882103E0,7.232989669E-1,-5.285113454E-1
8.461530788E0,3.214860916E0,7.962695360E-1,-4.880313277E-1
8.466588496E0,3.269721985E0,8.703053594E-1,-4.677913189E-1
8.471630319E0,3.354943275E0,9.390148520E-1,-4.518123865E-1
8.476688028E0,3.456143141E0,9.757664204E-1,-4.139955044E-1
8.481745788E0,3.562669516E0,9.608527422E-1,-3.495470881E-1
8.486803496E0,3.659075975E0,8.798927069E-1,-2.595323324E-1
8.491861153E0,3.735774755E0,7.387453318E-1,-1.524733305E-1
8.496918913E0,3.798625469E0,5.635094643E-1,-4.062065855E-2
8.501986517E0,3.849225521E0,4.021219909E-1,5.685095116E-2
8.507044278E0,3.882248640E0,2.684314251E-1,1.324846447E-1
8.512101934E0,3.901956081E0,1.507198215E-1,1.830846667E-1
8.517159642E0,3.901423216E0,2.288818546E-2,2.161078453E-1
8.522217351E0,3.875324488E0,-1.305097491E-1,2.358152121E-1
8.527275059E0,3.826322317E0,-2.977561355E-1,2.422067970E-1
8.532332767E0,3.758145332E0,-4.186635315E-1,2.475331128E-1
8.537390476E0,3.687838078E0,-4.468930364E-1,2.358152121E-1
8.542448184E0,3.626585484E0,-3.925645947E-1,2.059878409E-1
8.547505892E0,3.558408737E0,-2.476887405E-1,1.708341390E-1
8.552563601E0,3.479046345E0,-6.819184870E-2,1.292888671E-1
8.557621309E0,3.394357920E0,3.407345340E-2,7.176464051E-2
8.562686517E0,3.296886444E0,3.194292262E-2,3.587774001E-3
8.567744278E0,3.181305408E0,-6.020237133E-2,-4.275118560E-2
8.572801934E0,3.051343203E0,-2.040129304E-1,-4.115329310E-2
8.577859642E0,2.927772522E0,-3.701940477E-1,2.329514734E-2
8.582917351E0,2.822844267E0,-5.289182663E-1,1.244951859E-1
8.587975059E0,2.734427214E0,-6.801857352E-1,2.171731144E-1
8.593032819E0,2.662521839E0,-8.229310513E-1,2.821541727E-1
8.598090528E0,2.614052534E0,-9.315878749E-1,3.290257752E-1
8.603148236E0,2.576768160E0,-9.960362911E-1,3.593857586E-1
8.608205944E0,2.528298855E0,-1.015743732E0,3.844194710E-1
8.613263653E0,2.458523750E0,-1.001895308E0,4.137142301E-1
8.618321361E0,2.362650394E0,-9.875141978E-1,4.712384641E-1
8.623375892E0,2.241742849E0,-9.534257650E-1,5.266321301E-1
8.628433601E0,2.095801592E0,-8.559541702E-1,5.436763167E-1
8.633491309E0,1.948795557E0,-6.839141250E-1,4.978700280E-1
8.638549017E0,1.801789284E0,-4.815140963E-1,3.764300048E-1
8.643606726E0,1.654782891E0,-2.929624617E-1,1.948025674E-1
8.648664434E0,1.508841753E0,-1.273139715E-1,-2.304381505E-2
8.653725371E0,1.351182818E0,-2.678138902E-3,-2.456838787E-1
8.658783080E0,1.167424798E0,6.496609002E-2,-4.214523733E-1
8.663840788E0,9.639595151E-1,5.750924721E-2,-5.141302943E-1
8.668898496E0,7.535699606E-1,-1.612875378E-3,-5.466208458E-1
8.673956205E0,5.346583128E-1,-6.180026010E-2,-5.578061342E-1
8.679013913E0,3.354539573E-1,-1.150634438E-1,-5.530124307E-1
8.684070267E0,1.703381389E-1,-1.938929260E-1,-5.333050489E-1
8.689127976E0,2.812545374E-2,-2.887013853E-1,-4.938902855E-1
8.694185684E0,-9.011880308E-2,-3.840424716E-1,-4.438229203E-1
8.699243392E0,-1.870577782E-1,-4.841772318E-1,-3.905597329E-1
8.704301101E0,-2.733441293E-1,-5.432993770E-1,-3.554060459E-1
8.709358809E0,-3.489778638E-1,-5.337119699E-1,-3.367639184E-1
8.714418236E0,-4.038389027E-1,-4.969604015E-1,-3.271765411E-1
8.719475944E0,-4.464494288E-1,-4.420993328E-1,-3.394270837E-1
8.724533653E0,-4.816031456E-1,-3.574108779E-1,-3.740481436E-1
8.729591361E0,-5.098326206E-1,-2.610045373E-1,-4.161260426E-1
8.734649069E0,-5.417904854E-1,-1.853708178E-1,-4.582039416E-1
8.739706778E0,-5.902599692E-1,-1.544781774E-1,-4.965534508E-1
8.744764538E0,-6.595020890E-1,-1.518150121E-1,-5.386313796E-1
8.749822246E0,-7.420600057E-1,-1.576739699E-1,-5.737850666E-1
8.754879955E0,-8.283463717E-1,-1.502171308E-1,-6.014819145E-1
8.759937715E0,-9.130347967E-1,-1.166613325E-1,-6.163956523E-1
8.764995371E0,-9.961254001E-1,-4.369078204E-2,-6.313093305E-1
8.770053080E0,-1.079748631E0,5.644398555E-2,-6.318418980E-1
8.775112455E0,-1.162306428E0,1.113050506E-1,-5.961556435E-1
8.780170215E0,-1.233679175E0,5.005240813E-2,-5.029450655E-1
8.785227871E0,-1.310910702E0,-1.326402724E-1,-3.522102237E-1
8.790285580E0,-1.409980297E0,-3.323771954E-1,-1.902901977E-1
8.795343288E0,-1.536746621E0,-4.266529977E-1,-6.725224108E-2
8.800400996E0,-1.660317183E0,-3.845750988E-1,-8.130124770E-3
8.805454278E0,-1.748201370E0,-2.924298048E-1,4.653037526E-3
8.810511986E0,-1.792942405E0,-2.322424203E-1,-6.532229483E-3
8.815569694E0,-1.822237253E0,-1.928276718E-1,-5.446908623E-2
8.820627403E0,-1.861119390E0,-1.315750182E-1,-1.375596523E-1
8.825685111E0,-1.914382577E0,-5.487604812E-2,-2.131933570E-1
8.830742819E0,-1.977233052E0,-1.226551086E-2,-2.360965163E-1
8.835799434E0,-2.044877529E0,-3.889710084E-2,-1.993449330E-1
8.840857142E0,-2.107195377E0,-1.113350168E-1,-1.237112060E-1
8.845914851E0,-2.162056446E0,-1.624676436E-1,-2.570697293E-2
8.850972559E0,-2.204134226E0,-1.299771219E-1,7.655832916E-2
8.856030267E0,-2.222244024E0,-6.939192768E-3,1.479309797E-1
8.861087976E0,-2.217982769E0,1.496545523E-1,1.756278276E-1
8.866123705E0,-2.195079565E0,2.876061797E-1,1.388762295E-1
8.871181465E0,-2.168447971E0,3.680335581E-1,6.643832475E-2
8.876239173E0,-2.157795429E0,4.069156945E-1,-1.406481024E-4
8.881296882E0,-2.168447971E0,4.319493771E-1,-3.369644657E-2
8.886354590E0,-2.198808193E0,4.607114792E-1,-3.422908112E-2
8.891412246E0,-2.250473499E0,5.054525733E-1,-1.205911743E-3
8.896479173E0,-2.334629297E0,5.251599550E-1,6.377515942E-2
8.901536882E0,-2.447547197E0,4.798862338E-1,1.447351873E-1
8.906594590E0,-2.574846029E0,3.818819821E-1,2.209015340E-1
8.911652298E0,-2.707471609E0,2.583113909E-1,2.512615323E-1
8.916709955E0,-2.820389509E0,1.176966280E-1,2.422067970E-1
8.921767715E0,-2.905610323E0,-2.824446186E-2,2.081183642E-1
8.926857715E0,-2.949286222E0,-1.507497579E-1,1.548551917E-1
8.931915476E0,-2.966863155E0,-2.498192787E-1,1.117120311E-1
8.936973132E0,-2.960471392E0,-3.424971998E-1,9.200464934E-2
8.942030840E0,-2.945557833E0,-4.410340786E-1,9.999412298E-2
8.947088548E0,-2.941296816E0,-5.273203850E-1,1.346151829E-1
8.952146257E0,-2.943427324E0,-5.853772759E-1,1.873457283E-1
8.957198601E0,-2.948220968E0,-6.146720052E-1,2.464678437E-1
8.962256257E0,-2.941829443E0,-6.088130474E-1,3.029268086E-1
8.967313965E0,-2.916263103E0,-5.688656569E-1,3.460699618E-1
8.972371673E0,-2.861934662E0,-5.241246223E-1,3.641794622E-1
8.977429330E0,-2.788964272E0,-4.980256557E-1,3.758973777E-1
8.982487090E0,-2.722385168E0,-4.921667278E-1,3.977352679E-1
8.987529382E0,-2.681372404E0,-4.974930286E-1,4.382152557E-1
8.992587090E0,-2.661665201E0,-4.729919732E-1,4.925437272E-1
8.997644798E0,-2.636098623E0,-3.904340565E-1,5.367521644E-1
9.002702507E0,-2.615326166E0,-2.546129525E-1,5.687100291E-1
9.007760215E0,-2.613195658E0,-1.289118528E-1,5.894826651E-1
9.012817923E0,-2.654740810E0,-8.789923042E-2,5.953416228E-1
9.017875788E0,-2.741027117E0,-1.587392390E-1,5.926784873E-1
9.022933496E0,-2.832639933E0,-3.132024407E-1,5.942763686E-1
9.027991153E0,-2.908806324E0,-5.070803761E-1,6.001353264E-1
9.033048913E0,-2.958340883E0,-7.094804645E-1,6.097226739E-1
9.038106621E0,-2.983907223E0,-9.038910270E-1,6.299626827E-1
9.043164278E0,-2.990298986E0,-1.064213276E0,6.608553529E-1
9.048203028E0,-2.980711460E0,-1.145705819E0,7.013353109E-1
9.053260788E0,-2.945557833E0,-1.100964785E0,7.551311851E-1
9.058318496E0,-2.892827272E0,-9.374468327E-1,8.105248213E-1
9.063376205E0,-2.840096712E0,-7.078825831E-1,8.680490851E-1
9.068433913E0,-2.787898779E0,-4.820467234E-1,9.165185690E-1
9.073491569E0,-2.747418880E0,-3.041476905E-1,9.575312138E-1
9.078579798E0,-2.721852541E0,-1.614023894E-1,9.926849604E-1
9.083637507E0,-2.714928389E0,-4.848447070E-2,1.025175571E0
9.088695215E0,-2.704275608E0,2.714923956E-2,1.051807165E0
9.093752923E0,-2.677111387E0,7.615135610E-2,1.060329318E0
9.098810632E0,-2.640359879E0,1.049134731E-1,1.059796691E0
9.103868340E0,-2.604140997E0,8.786925673E-2,1.060329318E0
9.108909851E0,-2.566323996E0,4.206292704E-2,1.040089250E0
9.113967559E0,-2.516789436E0,1.117028575E-2,9.980112314E-1
9.119025267E0,-2.449145079E0,-2.717919834E-2,9.388890862E-1
9.124082976E0,-2.364456654E0,-7.884448767E-2,8.749732375E-1
9.129140632E0,-2.246212244E0,-1.070739627E-1,8.105248213E-1
9.134198392E0,-2.105597496E0,-9.002975374E-2,7.364889979E-1
9.139282923E0,-1.954329848E0,-4.276033957E-3,6.741711497E-1
9.144340632E0,-1.807323575E0,1.310124397E-1,6.225058436E-1
9.149398340E0,-1.668839335E0,2.625724673E-1,5.825584531E-1
9.154455996E0,-1.536746621E0,3.525872231E-1,5.436763167E-1
9.159513705E0,-1.381750822E0,3.840125203E-1,5.005331635E-1
9.164571413E0,-1.198525429E0,4.005240798E-1,4.611184299E-1
9.169596153E0,-9.870706201E-1,4.399388433E-1,4.296931624E-1
9.174653861E0,-7.569736838E-1,5.272904634E-1,4.073226452E-1
9.179711569E0,-5.332683921E-1,6.524589062E-1,3.972026408E-1
9.184769278E0,-3.308683634E-1,7.866821289E-1,4.030615985E-1
9.189827038E0,-1.550998688E-1,8.841537237E-1,4.115837216E-1
9.194884694E0,4.286020994E-4,9.283621907E-1,4.147794843E-1
9.199979330E0,1.543591768E-1,8.905453682E-1,3.860173523E-1
9.205037038E0,3.114855289E-1,7.861495614E-1,3.247646987E-1
9.210094746E0,4.792645574E-1,6.604484320E-1,2.470004857E-1
9.215152455E0,6.422499418E-1,5.310189128E-1,1.708341390E-1
9.220210111E0,7.876583934E-1,3.946651220E-1,9.573306888E-2
9.225267871E0,9.112289548E-1,2.753556371E-1,2.009935677E-2
9.230346257E0,1.009765744E0,2.199619412E-1,-4.594697803E-2
9.235403965E0,1.088595271E0,2.423324734E-1,-7.524172217E-2
9.240461621E0,1.172751188E0,2.993240654E-1,-9.548173100E-2
9.245519382E0,1.278744817E0,3.664356768E-1,-1.093301550E-1
9.250577038E0,1.406576514E0,4.505915046E-1,-1.087975278E-1
9.255634798E0,1.540266991E0,5.400736928E-1,-8.429646492E-2
9.260647455E0,1.667566061E0,6.077178717E-1,-3.582697362E-2
9.265705163E0,1.785810232E0,6.465999484E-1,5.718301516E-3
9.270762923E0,1.901924014E0,6.593831778E-1,2.169725299E-2
9.275820580E0,2.021233320E0,6.476652622E-1,3.055142472E-3
9.280878288E0,2.142673254E0,6.146420836E-1,-4.647961259E-2
9.285935996E0,2.273700953E0,5.725641847E-1,-1.199827865E-1
9.290988444E0,2.426033497E0,5.336820483E-1,-2.025407106E-1
9.296046153E0,2.593279600E0,5.155725479E-1,-2.898923457E-1
9.301103861E0,2.765319824E0,5.235620737E-1,-3.660586476E-1
9.306161517E0,2.935229540E0,5.523241758E-1,-4.267786741E-1
9.311219226E0,3.093420982E0,5.917389393E-1,-4.747155607E-1
9.316276986E0,3.232437849E0,6.252947450E-1,-5.119998455E-1
9.321345840E0,3.324050426E0,6.189031601E-1,-5.279787779E-1
9.326403548E0,3.371987581E0,5.512589216E-1,-5.354356170E-1
9.331461257E0,3.397021055E0,4.426019788E-1,-5.317071676E-1
9.336518913E0,3.403945208E0,3.200967014E-1,-5.221198201E-1
9.341576673E0,3.397553682E0,2.210272104E-1,-5.173261166E-1
9.346634330E0,3.385303259E0,1.603071988E-1,-5.130650401E-1
9.351690319E0,3.384238005E0,1.336756051E-1,-5.151956081E-1
9.356748028E0,3.385835886E0,1.262187511E-1,-5.349029303E-1
9.361805736E0,3.390096903E0,1.320776939E-1,-5.620672107E-1
9.366863444E0,3.398086309E0,1.597745568E-1,-5.892313719E-1
9.371921153E0,3.407140970E0,2.050482482E-1,-6.046777368E-1
9.376978861E0,3.411402225E0,2.545829713E-1,-5.956229568E-1
9.382026778E0,3.402347326E0,3.169009089E-1,-5.684587359E-1
9.387084486E0,3.379444361E0,4.085135758E-1,-5.311745405E-1
9.392142194E0,3.340029478E0,5.097136497E-1,-4.773786962E-1
9.397199903E0,3.295820951E0,5.901410580E-1,-4.155934155E-1
9.402257611E0,3.268124104E0,6.402084231E-1,-3.538081348E-1
9.407315319E0,3.265461206E0,6.535242200E-1,-2.989470661E-1
9.412381986E0,3.291027308E0,6.370126605E-1,-2.536733747E-1
9.417439694E0,3.338964224E0,5.938694477E-1,-2.115954608E-1
9.422497403E0,3.402879953E0,5.368778706E-1,-1.748438776E-1
9.427555111E0,3.459871769E0,4.516567290E-1,-1.370270103E-1
9.432612819E0,3.504612684E0,3.328798413E-1,-9.335120022E-2
9.437670528E0,3.525385380E0,1.896019280E-1,-3.902276605E-2
9.442708965E0,3.530179024E0,6.123766676E-2,8.381459862E-3
9.447766673E0,3.528048515E0,-2.930972539E-2,4.886147380E-2
9.452824382E0,3.532309532E0,-9.109501541E-2,9.679833800E-2
9.457882090E0,3.541364431E0,-1.438255459E-1,1.548551917E-1
9.462939798E0,3.542962074E0,-1.997518688E-1,2.145099491E-1
9.467997507E0,3.532309532E0,-2.743203342E-1,2.635120451E-1
9.473089173E0,3.504080057E0,-3.424971998E-1,3.002636731E-1
9.478146882E0,3.450816870E0,-3.904340565E-1,3.268952370E-1
9.483204590E0,3.365595818E0,-4.213266969E-1,3.455373645E-1
9.488262298E0,3.251612663E0,-4.378382862E-1,3.572552502E-1
9.493320007E0,3.124313593E0,-4.729919732E-1,3.513962924E-1
9.498377715E0,2.987959862E0,-5.241246223E-1,3.322215676E-1
9.503399382E0,2.837224960E0,-5.683330894E-1,3.093183935E-1
9.508457038E0,2.679566145E0,-5.933667421E-1,2.789583802E-1
9.513514798E0,2.519243956E0,-5.827140808E-1,2.539246976E-1
9.518572455E0,2.368509293E0,-5.427667499E-1,2.294236273E-1
9.523630163E0,2.232155561E0,-4.889709353E-1,1.985309869E-1
9.528782923E0,2.111248016E0,-4.506214559E-1,1.633772999E-1
9.533840580E0,2.005786896E0,-4.378382862E-1,1.255604476E-1
9.538898288E0,1.917370319E0,-4.319793284E-1,1.085162312E-1
9.543955996E0,1.832681894E0,-4.117393494E-1,1.303541213E-1
9.549013705E0,1.748526096E0,-3.616719246E-1,1.937372983E-1
9.554071413E0,1.660641789E0,-2.823098004E-1,2.906762958E-1
9.559129121E0,1.583942771E0,-1.981539875E-1,3.876152635E-1
9.564092663E0,1.524288177E0,-1.289118528E-1,4.568573833E-1
9.569150371E0,1.480079651E0,-6.073499843E-2,4.973374009E-1
9.574208080E0,1.441730142E0,-1.226551086E-2,5.154468417E-1
9.579265736E0,1.389532328E0,6.909233052E-3,5.165121555E-1
9.584323444E0,1.311767936E0,2.115546959E-3,5.063921213E-1
9.589381205E0,1.183403730E0,-3.729920089E-2,4.770974219E-1
9.594458288E0,9.932542443E-1,-1.278465986E-1,4.121163189E-1
9.599515944E0,7.562330961E-1,-2.626024485E-1,3.114489019E-1
9.604573705E0,4.899171591E-1,-4.197288156E-1,1.703015119E-1
9.609631361E0,2.102855146E-1,-5.432993770E-1,-2.410907857E-2
9.614689069E0,-5.283457041E-2,-5.757898688E-1,-2.440859973E-1
9.619746830E0,-2.664199173E-1,-5.172003508E-1,-4.230502546E-1
9.624807194E0,-4.150241911E-1,-3.914993405E-1,-5.434250236E-1
9.629864955E0,-5.156915188E-1,-2.072087228E-1,-6.318418980E-1
9.634922611E0,-5.854662657E-1,1.756186970E-2,-6.909640431E-1
9.639980319E0,-6.232831478E-1,2.577787936E-1,-7.085409164E-1
9.645038028E0,-6.493821144E-1,4.580483139E-1,-6.941598654E-1
9.650095736E0,-6.781442165E-1,5.725641847E-1,-6.515493393E-1
9.655147663E0,-7.234179378E-1,5.762926340E-1,-5.663282275E-1
9.660205371E0,-7.942579389E-1,4.697661996E-1,-4.379639626E-1
9.665263080E0,-8.933274746E-1,2.742903829E-1,-2.850986421E-1
9.670320788E0,-1.008908510E0,8.507127874E-3,-1.237112060E-1
9.675378496E0,-1.127685428E0,-3.057456017E-1,2.595830709E-2
9.680436153E0,-1.246462226E0,-6.444993615E-1,1.415393949E-1
9.685487871E0,-1.354586482E0,-9.480994940E-1,1.974657327E-1
9.690545580E0,-1.462178230E0,-1.154760599E0,1.713667810E-1
9.695603288E0,-1.561247587E0,-1.252232194E0,9.413518012E-2
9.700660996E0,-1.634218216E0,-1.245840549E0,-3.869070206E-3
9.705718705E0,-1.676296115E0,-1.152097464E0,-1.151891053E-1
9.710776413E0,-1.700797200E0,-9.896447659E-1,-2.211828381E-1
9.715841517E0,-1.712515116E0,-7.872446775E-1,-3.021428585E-1
9.720899226E0,-1.713047624E0,-5.768551826E-1,-3.420902491E-1
9.725956934E0,-1.696003437E0,-3.760530055E-1,-3.490144312E-1
9.731014642E0,-1.667241454E0,-1.901645064E-1,-3.341007829E-1
9.736072351E0,-1.625163555E0,-1.918972284E-2,-3.165239394E-1
9.741130059E0,-1.569237113E0,1.198271513E-1,-2.984144390E-1
9.746168705E0,-1.511180282E0,2.231577337E-1,-2.877618074E-1
9.751226413E0,-1.468037009E0,2.998566926E-1,-2.845660150E-1
9.756284121E0,-1.440872908E0,3.259556592E-1,-2.707175910E-1
9.761341778E0,-1.430752873E0,2.812145650E-1,-2.286396772E-1
9.766399486E0,-1.438742399E0,1.736229807E-1,-1.705828160E-1
9.771457194E0,-1.473363519E0,3.247555718E-2,-1.077322513E-1
9.776522351E0,-1.524496078E0,-1.177266091E-1,-4.488171637E-2
9.781580059E0,-1.583618283E0,-2.610045373E-1,4.120405763E-3
9.786637767E0,-1.650197268E0,-3.867056370E-1,2.915409766E-2
9.791695476E0,-1.718906641E0,-4.868404269E-1,2.968672849E-2
9.796753184E0,-1.791877151E0,-5.699309111E-1,8.381459862E-3
9.801810892E0,-1.873369813E0,-6.354446411E-1,-2.623960562E-2
9.806853861E0,-1.961786747E0,-6.769899130E-1,-6.299118698E-2
9.811911569E0,-2.053932190E0,-6.897730827E-1,-9.388383478E-2
9.816969278E0,-2.147675276E0,-6.753920317E-1,-1.077322513E-1
9.822026934E0,-2.243549109E0,-6.546193957E-1,-9.388383478E-2
9.827084642E0,-2.333564043E0,-6.498256922E-1,-4.967540130E-2
9.832142351E0,-2.408132315E0,-6.492930651E-1,2.542567626E-2
9.837193444E0,-2.465124130E0,-6.343793869E-1,1.154404432E-1
9.842251153E0,-2.492820978E0,-6.013562083E-1,2.054551989E-1
9.847308809E0,-2.495483875E0,-5.369077921E-1,2.816215456E-1
9.852366517E0,-2.477906942E0,-4.383709133E-1,3.247646987E-1
9.857424226E0,-2.462993383E0,-3.430298567E-1,3.199710250E-1
9.862481934E0,-2.477906942E0,-2.924298048E-1,2.880131304E-1
9.867559017E0,-2.540757656E0,-2.966908813E-1,2.496636361E-1
9.872616726E0,-2.640359879E0,-3.531498313E-1,2.235646844E-1
9.877674434E0,-2.756473541E0,-4.266529977E-1,2.123794258E-1
9.882732142E0,-2.864065170E0,-4.671330154E-1,2.129120529E-1
9.887789851E0,-2.931709290E0,-4.655351639E-1,2.230320573E-1
9.892847559E0,-2.962069511E0,-4.570130408E-1,2.443373203E-1
9.897908705E0,-2.961004257E0,-4.809814692E-1,2.677731216E-1
9.902966361E0,-2.938633680E0,-5.283856988E-1,3.045247197E-1
9.908024069E0,-2.909871340E0,-5.555498600E-1,3.727015555E-1
9.913081778E0,-2.887501001E0,-5.454298854E-1,4.648468494E-1
9.918139486E0,-2.883772612E0,-4.974930286E-1,5.729710460E-1
9.923197194E0,-2.897620916E0,-4.330446124E-1,6.874869466E-1
9.928252923E0,-2.916263103E0,-3.701940477E-1,7.982742786E-1
9.933310632E0,-2.933307171E0,-3.254530132E-1,9.032027721E-1
9.938368340E0,-2.966863155E0,-2.785813808E-1,9.873585701E-1
9.943426048E0,-3.023322105E0,-2.162634581E-1,1.056068182E0
9.948483757E0,-3.098423243E0,-1.406297535E-1,1.106135607E0
9.953541465E0,-3.165534735E0,-7.192026824E-2,1.140224099E0
9.958621934E0,-3.194829464E0,-1.546130050E-2,1.157268286E0
9.963679642E0,-3.211341143E0,4.525871947E-2,1.158866167E0
9.968737351E0,-3.210808516E0,1.017176732E-1,1.155137777E0
9.973795059E0,-3.195894957E0,8.360820264E-2,1.170051455E0
9.978852767E0,-3.174589396E0,-6.406561006E-3,1.189758778E0
9.983910476E0,-3.153816938E0,-1.390318573E-1,1.198280931E0
9.988965684E0,-3.141033649E0,-2.673961222E-1,1.187628269E0
9.994023392E0,-3.124521971E0,-3.414319456E-1,1.162061930E0
9.999081101E0,-3.108010530E0,-3.632698357E-1,1.124777675E0
1.000413876E1,-3.081378937E0,-3.946951330E-1,1.084830403E0
1.000919652E1,-3.041431427E0,-4.655351639E-1,1.040089250E0
1.001425417E1,-2.972722054E0,-5.432993770E-1,9.825648665E-1
1.001931725E1,-2.844357729E0,-5.555498600E-1,8.989416957E-1
1.002437496E1,-2.688829422E0,-4.905688465E-1,7.950785756E-1
1.002943266E1,-2.532235622E0,-3.792487979E-1,6.922805905E-1
1.003449037E1,-2.371380568E0,-2.642003596E-1,5.884174109E-1
1.003954808E1,-2.194546938E0,-1.709897518E-1,4.898805618E-1
1.004460579E1,-2.011854410E0,-1.001497582E-1,3.993331492E-1
1.004966146E1,-1.839814067E0,-5.487604812E-2,3.151773512E-1
1.005471917E1,-1.692807674E0,-1.652656496E-2,2.523267865E-1
1.005977688E1,-1.569237113E0,2.661660872E-2,2.102488875E-1
1.006483459E1,-1.470700264E0,7.828188688E-2,1.873457283E-1
1.006989230E1,-1.374826431E0,1.347408593E-1,1.713667810E-1
1.007495001E1,-1.265637040E0,1.635029763E-1,1.553878188E-1
1.007997360E1,-1.121293783E0,1.858735085E-1,1.170383468E-1
1.008503131E1,-9.412642717E-1,2.322124839E-1,6.590569019E-2
1.009008902E1,-7.340705395E-1,2.737577260E-1,8.381459862E-3
1.009514673E1,-5.242136121E-1,3.067809045E-1,-5.180592835E-2
1.010020443E1,-3.431189060E-1,3.643051386E-1,-9.601435810E-2
1.010526214E1,-2.083630413E-1,4.181009531E-1,-1.205154210E-1
1.011033652E1,-1.210114434E-1,4.436672628E-1,-1.482122838E-1
1.011539423E1,-5.443246663E-2,4.484609365E-1,-1.828333437E-1
1.012045193E1,5.222287960E-3,4.527220130E-1,-2.110628188E-1
1.012550964E1,7.180125266E-2,4.431346357E-1,-2.446186244E-1
1.013056735E1,1.378476024E-1,4.426019788E-1,-2.664565444E-1
1.013562506E1,2.102855146E-1,4.601788521E-1,-2.696523070E-1
1.014071298E1,2.694076002E-1,5.033220649E-1,-2.419554591E-1
1.014577068E1,3.301276565E-1,5.485957861E-1,-2.041386068E-1
1.015082839E1,4.004350603E-1,5.805536509E-1,-1.753764898E-1
1.015588610E1,5.042982697E-1,5.981305242E-1,-1.759091318E-1
1.016094381E1,6.406520009E-1,6.039894223E-1,-2.078670412E-1
1.016600152E1,8.057678938E-1,6.183704734E-1,-2.499449700E-1
1.017102433E1,9.868626595E-1,6.609810591E-1,-2.664565444E-1
1.017608204E1,1.159967899E0,7.083852291E-1,-2.504775822E-1
1.018113975E1,1.319224954E0,7.435389757E-1,-2.094649374E-1
1.018619746E1,1.468361735E0,7.648442388E-1,-1.684522927E-1
1.019125516E1,1.606313348E0,7.675073743E-1,-1.535385847E-1
1.019631287E1,1.741069317E0,7.472674251E-1,-1.689849198E-1
1.020137027E1,1.882216573E0,6.833515763E-1,-2.057365179E-1
1.020642803E1,2.034549236E0,5.874778628E-1,-2.526081204E-1
1.021148568E1,2.188479662E0,5.166378021E-1,-2.941533923E-1
1.021654339E1,2.324833393E0,4.548525512E-1,-3.277091682E-1
1.022160110E1,2.454795599E0,3.616419733E-1,-3.575365543E-1
1.022665881E1,2.593279600E0,2.593766749E-1,-3.910923600E-1
1.023171829E1,2.730698824E0,1.938629895E-1,-4.416923821E-1
1.023677594E1,2.869715691E0,1.672313958E-1,-4.986839592E-1
