"Time (s)","Gyroscope x (rad/s)","Gyroscope y (rad/s)","Gyroscope z (rad/s)"
6.132069800E-2,-1.881463528E-1,1.252017543E-2,-2.336589061E-2
6.641647900E-2,-1.908095032E-1,-1.198088564E-2,-4.723777995E-3
7.150856200E-2,-2.019947618E-1,1.038964838E-2,-2.123536170E-2
7.653325000E-2,-2.094516158E-1,2.530333772E-2,-2.762694471E-2
8.157804100E-2,-2.041253000E-1,4.021703079E-2,-2.922483906E-2
8.663075000E-2,-1.950705647E-1,5.353282019E-2,-3.188800067E-2
9.170090600E-2,-1.774937212E-1,6.152229384E-2,-3.082273528E-2
9.675627100E-2,-1.583189666E-1,6.578334421E-2,-3.188800067E-2
1.018249160E-1,-1.370137036E-1,6.951177120E-2,-3.082273528E-2
1.068613750E-1,-1.151757985E-1,6.631597877E-2,-2.602904849E-2
1.119303850E-1,-9.227263182E-2,5.726124719E-2,-2.496378496E-2
1.169997080E-1,-7.469578832E-2,4.820650443E-2,-2.017010003E-2
1.220487710E-1,-5.285787582E-2,3.276018426E-2,-1.644167677E-2
1.271168960E-1,-3.261787072E-2,1.518333517E-2,-1.324588619E-2
1.321743430E-1,-1.291049272E-2,-4.524040967E-3,-6.321672350E-3
1.372313230E-1,5.198985338E-3,-2.316615172E-2,-1.527987421E-3
1.421917390E-1,2.384109795E-2,-3.807983920E-2,1.667803153E-3
1.472525210E-1,4.354847223E-2,-4.819984362E-2,2.733066678E-3
1.524071040E-1,5.952742323E-2,-5.139563605E-2,5.396225490E-3
1.574525210E-1,7.071268559E-2,-5.086300150E-2,8.059384301E-3
1.625056460E-1,8.349584788E-2,-4.447142407E-2,8.592016064E-3
1.675688750E-1,9.681164473E-2,-3.701457754E-2,1.018991135E-2
1.726076770E-1,1.058663875E-1,-2.742720582E-2,1.178780664E-2
1.776940830E-1,1.165190190E-1,-1.357878093E-2,1.232043747E-2
1.827195000E-1,1.271716505E-1,-2.393513918E-3,1.072254311E-2
1.878301770E-1,1.362264007E-1,6.661225110E-3,1.072254311E-2
1.928856460E-1,1.415527016E-1,1.411807165E-2,9.657279588E-3
1.979099680E-1,1.452811211E-1,1.358543709E-2,1.125517488E-2
2.029943430E-1,1.511400789E-1,1.252017543E-2,1.391833369E-2
2.080251770E-1,1.559337676E-1,8.791752160E-3,1.551622897E-2
2.130957500E-1,1.548684984E-1,3.998067230E-3,1.232043747E-2
2.181447080E-1,1.474116594E-1,-2.926145680E-3,1.711412333E-2
2.231973120E-1,1.399548203E-1,-1.570930704E-2,1.871201769E-2
2.282620520E-1,1.293021739E-1,-2.263352089E-2,1.817938685E-2
2.332935100E-1,1.090621725E-1,-3.115562722E-2,2.137517743E-2
2.383779370E-1,8.456110954E-2,-3.861247003E-2,2.297307178E-2
2.434370000E-1,5.153794959E-2,-4.287352785E-2,2.190780826E-2
2.485018430E-1,8.927408606E-3,-4.766720906E-2,2.137517743E-2
2.535670520E-1,-3.581365943E-2,-4.819984362E-2,2.030991390E-2
2.586206460E-1,-7.842420042E-2,-4.287352785E-2,1.551622897E-2
2.636677810E-1,-1.215673685E-1,-3.328615427E-2,1.178780664E-2
2.687020520E-1,-1.572537124E-1,-2.156825736E-2,4.330961965E-3
2.738010620E-1,-1.844179183E-1,-8.252463304E-3,-4.627237795E-4
2.788515830E-1,-2.051905692E-1,1.038964838E-2,-2.593250712E-3
2.838950210E-1,-2.158432007E-1,2.956439182E-2,-6.854305044E-3
2.889687180E-1,-2.153105587E-1,4.394545034E-2,-1.271325443E-2
2.939879890E-1,-2.046579272E-1,6.152229384E-2,-1.590904593E-2
2.990802810E-1,-1.902768761E-1,7.537071407E-2,-1.803957298E-2
3.041102810E-1,-1.758958101E-1,8.655598760E-2,-2.017010003E-2
3.092211660E-1,-1.588515937E-1,8.921914548E-2,-1.857220381E-2
3.142473120E-1,-1.375463307E-1,8.495809138E-2,-1.910483651E-2
3.193546560E-1,-1.178389490E-1,7.856650651E-2,-1.697430946E-2
3.243705930E-1,-9.653368592E-2,6.631597877E-2,-1.111535914E-2
3.293893960E-1,-7.682631165E-2,4.873913899E-2,-8.984832093E-3
3.344527290E-1,-5.765156075E-2,2.743386477E-2,-6.321672350E-3
3.395447600E-1,-3.847681731E-2,7.726490498E-3,-2.060619183E-3
3.445705410E-1,-2.036733739E-2,-1.464404445E-2,2.200434916E-3
3.496985620E-1,9.379312978E-4,-3.168826178E-2,5.928857252E-3
3.547014270E-1,2.171057090E-2,-4.606931284E-2,8.059384301E-3
3.597832500E-1,3.928741813E-2,-5.352615938E-2,9.657279588E-3
3.648088230E-1,5.579900369E-2,-5.512405559E-2,1.445096545E-2
3.699078850E-1,7.018005103E-2,-5.139563605E-2,1.498359721E-2
3.749110620E-1,8.349584788E-2,-4.234089330E-2,1.445096545E-2
3.799951770E-1,9.521374106E-2,-3.168826178E-2,1.604885980E-2
3.850630410E-1,1.074642763E-1,-2.103562467E-2,1.551622897E-2
3.901017910E-1,1.175842807E-1,-7.719831541E-3,1.445096545E-2
3.951778850E-1,1.255737692E-1,3.998067230E-3,1.445096545E-2
4.002248120E-1,1.335632354E-1,1.198754273E-2,1.125517488E-2
4.052762710E-1,1.426179856E-1,1.624859869E-2,1.072254311E-2
4.103076770E-1,1.506074518E-1,1.678122953E-2,9.124647826E-3
4.153917390E-1,1.554011405E-1,1.571596600E-2,9.124647826E-3
4.204386140E-1,1.591295600E-1,9.324384853E-3,8.059384301E-3
4.255073640E-1,1.585969180E-1,2.400171012E-3,9.657279588E-3
4.305255410E-1,1.575316638E-1,-5.056672730E-3,1.125517488E-2
4.356071560E-1,1.490095556E-1,-1.411141269E-2,1.125517488E-2
4.407100730E-1,1.372916549E-1,-2.316615172E-2,1.232043747E-2
4.457523640E-1,1.261063963E-1,-3.115562722E-2,1.498359721E-2
4.508275730E-1,1.021379605E-1,-3.861247003E-2,1.711412333E-2
4.558537180E-1,7.284321636E-2,-4.234089330E-2,1.764675602E-2
4.609037180E-1,3.609162569E-2,-4.713458195E-2,1.658149064E-2
4.659703330E-1,-7.584177423E-3,-4.606931284E-2,1.178780664E-2
4.710313230E-1,-5.179261416E-2,-4.447142407E-2,9.124647826E-3
4.760856460E-1,-9.866420925E-2,-3.807983920E-2,7.526752539E-3
4.811163230E-1,-1.391442269E-1,-2.742720582E-2,1.667803153E-3
4.862012180E-1,-1.716347635E-1,-1.677457057E-2,-4.723777995E-3
4.912867910E-1,-1.977337152E-1,-2.926145680E-3,-1.058272738E-2
4.963301250E-1,-2.089189887E-1,1.624859869E-2,-1.750694029E-2
5.014019480E-1,-2.121147811E-1,3.382544592E-2,-2.336589061E-2
5.064441350E-1,-2.089189887E-1,5.033702776E-2,-2.869220637E-2
5.115022600E-1,-1.977337152E-1,6.471808255E-2,-3.029010445E-2
5.165595000E-1,-1.801568717E-1,7.643598318E-2,-3.242063150E-2
5.216170520E-1,-1.631126553E-1,8.282756805E-2,-3.455115855E-2
5.266767910E-1,-1.407421231E-1,8.602335304E-2,-3.188800067E-2
5.317338750E-1,-1.194368452E-1,8.389282972E-2,-2.869220637E-2
5.367902810E-1,-9.866420925E-2,7.377282530E-2,-2.815957554E-2
5.418305930E-1,-8.055473119E-2,5.832650885E-2,-2.176799625E-2
5.469107500E-1,-5.765156075E-2,4.234755412E-2,-2.017010003E-2
5.519384060E-1,-3.794418648E-2,1.997702010E-2,-1.484378148E-2
5.570240830E-1,-1.663891412E-2,-3.458777443E-3,-9.517463855E-3
5.620522600E-1,6.264248863E-3,-2.369878255E-2,-5.789041519E-3
5.671375730E-1,2.970004827E-2,-3.861247003E-2,-3.125882475E-3
5.721981980E-1,5.047268048E-2,-5.139563605E-2,-9.953556582E-4
5.772556460E-1,6.645163149E-2,-5.672195181E-2,3.265698440E-3
5.823095520E-1,8.402848244E-2,-5.192826316E-2,2.733066678E-3
5.873688750E-1,9.840954095E-2,-4.500405118E-2,2.733066678E-3
5.924281460E-1,1.085295379E-1,-3.275352344E-2,4.330961965E-3
5.974833020E-1,1.202474460E-1,-2.263352089E-2,3.265698440E-3
6.025428850E-1,1.314327121E-1,-9.317726828E-3,1.667803153E-3
6.075995520E-1,1.399548203E-1,4.530698992E-3,1.667803153E-3
6.126405410E-1,1.484769285E-1,1.252017543E-2,1.135171507E-3
6.177038230E-1,1.569990367E-1,1.784649305E-2,1.667803153E-3
6.227766350E-1,1.623253524E-1,2.104228176E-2,2.733066678E-3
6.278163750E-1,1.665864140E-1,2.050965093E-2,1.135171507E-3
6.328751250E-1,1.703148186E-1,1.731386036E-2,6.025396870E-4
6.379322600E-1,1.719127148E-1,1.092227921E-2,2.733066678E-3
6.429852810E-1,1.687169373E-1,2.932803705E-3,3.265698440E-3
6.480394480E-1,1.649885029E-1,-6.654568017E-3,4.863593727E-3
6.530978850E-1,1.596621871E-1,-1.570930704E-2,1.072254311E-2
6.581567910E-1,1.495421827E-1,-2.210089006E-2,1.018991135E-2
6.632225730E-1,1.346284896E-1,-3.009036556E-2,1.178780664E-2
6.682951250E-1,1.143884882E-1,-3.381878510E-2,1.391833369E-2
6.733508020E-1,8.882216364E-2,-3.754720837E-2,1.658149064E-2
6.783943960E-1,5.526636913E-2,-4.021036997E-2,1.817938685E-2
6.834540830E-1,1.318846177E-2,-4.180826619E-2,1.711412333E-2
6.885105930E-1,-2.729155309E-2,-4.127563164E-2,1.285307016E-2
6.935703850E-1,-6.990209967E-2,-3.648194298E-2,8.592016064E-3
6.986269480E-1,-1.162410602E-1,-2.636194229E-2,5.396225490E-3
7.036835620E-1,-1.535252780E-1,-1.677457057E-2,2.733066678E-3
7.087423120E-1,-1.817547679E-1,-5.589304492E-3,-4.191146232E-3
7.138004370E-1,-2.030600309E-1,9.857015684E-3,-1.005009469E-2
7.188580930E-1,-2.121147811E-1,2.423807606E-2,-1.590904593E-2
7.239277290E-1,-2.110495120E-1,3.915176913E-2,-1.963746734E-2
7.289724160E-1,-2.057231963E-1,5.353282019E-2,-2.336589061E-2
7.340323640E-1,-1.886789650E-1,6.791387498E-2,-2.336589061E-2
7.390878850E-1,-1.716347635E-1,7.590334862E-2,-2.389852330E-2
7.441606980E-1,-1.556558013E-1,7.963176817E-2,-2.176799625E-2
7.492366870E-1,-1.348831654E-1,7.963176817E-2,-2.017010003E-2
7.542746040E-1,-1.135778949E-1,7.483808696E-2,-1.644167677E-2
7.593692390E-1,-9.387052059E-2,6.418545544E-2,-9.517463855E-3
7.643904890E-1,-7.309788465E-2,4.660860822E-2,-6.321672350E-3
7.694372080E-1,-5.498840287E-2,2.903176099E-2,-2.060619183E-3
7.745058540E-1,-3.421576321E-2,7.726490498E-3,1.667803153E-3
7.795641870E-1,-1.024733484E-2,-1.198088564E-2,5.396225490E-3
7.846227810E-1,7.862144150E-3,-3.168826178E-2,9.124647826E-3
7.896730930E-1,2.650425583E-2,-4.553668573E-2,9.124647826E-3
7.947392390E-1,4.834215716E-2,-5.405879393E-2,1.178780664E-2
7.998102810E-1,6.378847361E-2,-5.512405559E-2,1.391833369E-2
8.048552810E-1,7.603900135E-2,-5.192826316E-2,1.391833369E-2
8.098820520E-1,8.828953654E-2,-4.660194740E-2,1.391833369E-2
8.149666350E-1,9.840954095E-2,-3.488404676E-2,1.658149064E-2
8.200195000E-1,1.127905920E-1,-2.103562467E-2,1.391833369E-2
8.250855410E-1,1.234432310E-1,-7.187199779E-3,1.285307016E-2
8.301998120E-1,1.314327121E-1,4.530698992E-3,1.498359721E-2
8.351992910E-1,1.415527016E-1,1.252017543E-2,1.338570192E-2
8.402487180E-1,1.474116594E-1,1.837912388E-2,1.391833369E-2
8.453167390E-1,1.522053480E-1,1.891175658E-2,1.391833369E-2
8.503438230E-1,1.559337676E-1,1.411807165E-2,1.285307016E-2
8.554166350E-1,1.543358713E-1,8.259121329E-3,1.445096545E-2
8.604525730E-1,1.548684984E-1,1.334908418E-3,1.764675602E-2
8.655328850E-1,1.532706171E-1,-8.785095066E-3,1.817938685E-2
8.706049680E-1,1.431505978E-1,-1.730720326E-2,1.977728121E-2
8.756609060E-1,1.319653392E-1,-2.636194229E-2,1.924465038E-2
8.807290310E-1,1.138558537E-1,-3.275352344E-2,2.084254473E-2
8.857632500E-1,9.201795608E-2,-3.967773542E-2,2.244044095E-2
8.908368430E-1,6.272321194E-2,-4.606931284E-2,2.137517743E-2
8.958786140E-1,2.597162500E-2,-4.713458195E-2,1.977728121E-2
9.009300210E-1,-1.717154868E-2,-4.766720906E-2,1.658149064E-2
9.059943430E-1,-6.351051480E-2,-4.287352785E-2,1.445096545E-2
9.110584580E-1,-1.103821099E-1,-3.381878510E-2,1.018991135E-2
9.161100730E-1,-1.487316042E-1,-2.369878255E-2,5.396225490E-3
9.211692390E-1,-1.812221408E-1,-1.198088564E-2,1.135171507E-3
9.262229890E-1,-2.041253000E-1,2.696449519E-4,-5.789041519E-3
9.313373640E-1,-2.195716202E-1,1.624859869E-2,-1.111535914E-2
9.363368430E-1,-2.211695164E-1,3.435808048E-2,-1.590904593E-2
9.414367910E-1,-2.142453045E-1,5.300018564E-2,-2.017010003E-2
9.464560620E-1,-2.014621496E-1,6.365282089E-2,-2.389852330E-2
9.514950210E-1,-1.838852912E-1,7.483808696E-2,-2.709431201E-2
9.565860100E-1,-1.663084477E-1,8.336019516E-2,-2.709431201E-2
9.616216350E-1,-1.455358118E-1,8.495809138E-2,-2.230062708E-2
9.666875210E-1,-1.236979067E-1,7.909914106E-2,-2.123536170E-2
9.717387710E-1,-1.055884287E-1,6.897913665E-2,-1.910483651E-2
9.768173640E-1,-8.428315073E-2,5.513071641E-2,-1.697430946E-2
9.818760100E-1,-6.297788024E-2,3.755387291E-2,-1.058272738E-2
9.869172080E-1,-4.220524430E-2,1.624859869E-2,-6.854305044E-3
9.919778850E-1,-2.249786444E-2,-4.524040967E-3,-2.593250712E-3
9.970491870E-1,4.052995355E-4,-2.316615172E-2,6.025396870E-4
1.002105541E0,2.330846526E-2,-4.127563164E-2,6.025396870E-4
1.007164760E0,4.461373389E-2,-4.979773983E-2,5.928857252E-3
1.012205125E0,6.165795028E-2,-5.512405559E-2,6.994120777E-3
1.017278250E0,7.497373968E-2,-5.565669015E-2,6.994120777E-3
1.022311114E0,8.988742530E-2,-4.713458195E-2,6.994120777E-3
1.027394552E0,1.032032222E-1,-3.754720837E-2,1.018991135E-2
1.032452416E0,1.159863919E-1,-2.742720582E-2,8.059384301E-3
1.037509812E0,1.277042925E-1,-1.304614916E-2,8.059384301E-3
1.042567573E0,1.362264007E-1,2.696449519E-4,7.526752539E-3
1.047624812E0,1.452811211E-1,1.145491190E-2,4.863593727E-3
1.052684448E0,1.538032442E-1,1.624859869E-2,5.396225490E-3
1.057742000E0,1.617927253E-1,1.784649305E-2,5.396225490E-3
1.062799083E0,1.639232486E-1,1.571596600E-2,5.396225490E-3
1.067856896E0,1.665864140E-1,1.092227921E-2,6.461489014E-3
1.072917260E0,1.692495495E-1,2.400171012E-3,7.526752539E-3
1.077972104E0,1.671190262E-1,-2.393513918E-3,8.059384301E-3
1.083029135E0,1.639232486E-1,-8.785095066E-3,6.994120777E-3
1.088086062E0,1.580643058E-1,-1.943773031E-2,1.072254311E-2
1.093143979E0,1.447485089E-1,-2.689457498E-2,1.232043747E-2
1.098205593E0,1.266390234E-1,-3.648194298E-2,1.232043747E-2
1.103246843E0,1.037358567E-1,-3.967773542E-2,1.178780664E-2
1.108305854E0,7.284321636E-2,-4.074299708E-2,1.445096545E-2
1.113363198E0,4.035267979E-2,-4.447142407E-2,1.498359721E-2
1.118423771E0,-1.725227106E-3,-4.180826619E-2,1.018991135E-2
1.123494604E0,-4.646629468E-2,-3.701457754E-2,6.461489014E-3
1.128549604E0,-8.960947394E-2,-2.902510203E-2,1.667803153E-3
1.133590177E0,-1.327526420E-1,-2.103562467E-2,-3.658514237E-3
1.138651583E0,-1.668410748E-1,-1.144825388E-2,-7.386936806E-3
1.143729864E0,-1.945379376E-1,-2.629868104E-4,-1.005009469E-2
1.148791323E0,-2.110495120E-1,1.465070248E-2,-1.750694029E-2
1.153850125E0,-2.158432007E-1,3.169492260E-2,-2.176799625E-2
1.158908927E0,-2.131800354E-1,4.607598111E-2,-2.283325978E-2
1.163967677E0,-2.019947618E-1,5.885913596E-2,-2.656168118E-2
1.169026479E0,-1.860158294E-1,7.057703286E-2,-3.029010445E-2
1.174085281E0,-1.673737019E-1,7.643598318E-2,-2.922483906E-2
1.179111323E0,-1.455358118E-1,7.696861774E-2,-2.602904849E-2
1.184170125E0,-1.274263263E-1,7.377282530E-2,-2.283325978E-2
1.189228875E0,-1.066536903E-1,6.738124788E-2,-2.017010003E-2
1.194287677E0,-8.375051618E-2,5.566334352E-2,-1.590904593E-2
1.199346479E0,-6.723894179E-2,4.021703079E-2,-1.218062267E-2
1.204405281E0,-4.380313680E-2,2.264017984E-2,-8.984832093E-3
1.209446896E0,-2.409575880E-2,2.696449519E-4,-5.789041519E-3
1.214505750E0,-1.725227106E-3,-1.943773031E-2,-1.527987421E-3
1.219564500E0,1.904741116E-2,-3.541668132E-2,2.733066678E-3
1.224623354E0,3.822215274E-2,-4.766720906E-2,4.330961965E-3
1.229682104E0,5.846216157E-2,-4.979773983E-2,6.461489014E-3
1.234740906E0,7.550636679E-2,-4.873247072E-2,8.592016064E-3
1.239795489E0,8.562637120E-2,-4.553668573E-2,1.018991135E-2
1.244854343E0,9.787690639E-2,-3.914510086E-2,1.018991135E-2
1.249913093E0,1.117253304E-1,-2.689457498E-2,1.018991135E-2
1.254971948E0,1.213127077E-1,-1.624193974E-2,1.125517488E-2
1.260030698E0,1.298348159E-1,-3.458777443E-3,1.072254311E-2
1.265089500E0,1.426179856E-1,7.193857804E-3,1.018991135E-2
1.270153041E0,1.484769285E-1,1.465070248E-2,1.018991135E-2
1.275211896E0,1.506074518E-1,1.518333517E-2,8.059384301E-3
1.280270646E0,1.559337676E-1,1.358543709E-2,9.124647826E-3
1.285329448E0,1.601948291E-1,1.038964838E-2,1.232043747E-2
1.290388250E0,1.591295600E-1,6.661225110E-3,1.285307016E-2
1.295447052E0,1.554011405E-1,-7.956185727E-4,1.338570192E-2
1.300514500E0,1.484769285E-1,-1.038299035E-2,1.338570192E-2
1.305573302E0,1.383569241E-1,-1.943773031E-2,1.445096545E-2
1.310632052E0,1.175842807E-1,-2.795983851E-2,1.445096545E-2
1.315690854E0,9.681164473E-2,-3.488404676E-2,1.604885980E-2
1.320749656E0,6.858216226E-2,-4.393878952E-2,1.711412333E-2
1.325808458E0,3.076531179E-2,-4.819984362E-2,1.604885980E-2
1.330879968E0,-1.131259836E-2,-4.819984362E-2,1.445096545E-2
1.335938771E0,-5.605366454E-2,-4.393878952E-2,1.178780664E-2
1.340997573E0,-9.706631303E-2,-3.914510086E-2,4.863593727E-3
1.346056375E0,-1.370137036E-1,-2.795983851E-2,1.135171507E-3
1.351115177E0,-1.711021215E-1,-1.517667621E-2,-9.953556582E-4
1.356173979E0,-1.950705647E-1,-2.629868104E-4,-7.386936806E-3
1.361213458E0,-2.073210925E-1,1.465070248E-2,-1.271325443E-2
1.366272260E0,-2.089189887E-1,3.329281136E-2,-1.803957298E-2
1.371331062E0,-2.057231963E-1,5.033702776E-2,-2.070273086E-2
1.376389812E0,-1.929400265E-1,6.418545544E-2,-1.857220381E-2
1.381448666E0,-1.758958101E-1,7.483808696E-2,-2.070273086E-2
1.386507416E0,-1.583189666E-1,8.602335304E-2,-2.230062708E-2
1.391538250E0,-1.370137036E-1,8.708862215E-2,-2.017010003E-2
1.396597104E0,-1.173063219E-1,8.495809138E-2,-1.910483651E-2
1.401655906E0,-9.813157469E-2,7.590334862E-2,-1.431114879E-2
1.406714708E0,-7.682631165E-2,6.312018633E-2,-1.271325443E-2
1.411773458E0,-5.658629909E-2,4.394545034E-2,-7.919568568E-3
1.416832260E0,-3.900944814E-2,2.210754529E-2,-4.191146232E-3
1.421875906E0,-1.610628329E-2,-1.328250859E-3,-4.627237795E-4
1.426934708E0,4.666353576E-3,-2.210089006E-2,3.265698440E-3
1.431993510E0,2.703688852E-2,-3.861247003E-2,4.330961965E-3
1.437052312E0,4.408110306E-2,-4.819984362E-2,5.928857252E-3
1.442111114E0,6.378847361E-2,-5.246089771E-2,9.657279588E-3
1.447169864E0,7.976742834E-2,-5.512405559E-2,8.592016064E-3
1.452247833E0,9.255059063E-2,-4.926510528E-2,9.657279588E-3
1.457306635E0,1.032032222E-1,-3.541668132E-2,9.657279588E-3
1.462365385E0,1.154537573E-1,-2.582931146E-2,1.125517488E-2
1.467424239E0,1.223779693E-1,-1.198088564E-2,9.657279588E-3
1.472483041E0,1.319653392E-1,-1.328250859E-3,1.018991135E-2
1.477541791E0,1.404874474E-1,1.092227921E-2,8.059384301E-3
1.482646843E0,1.452811211E-1,1.944438741E-2,1.018991135E-2
1.487705646E0,1.527379751E-1,1.944438741E-2,9.124647826E-3
1.492764448E0,1.591295600E-1,1.678122953E-2,1.072254311E-2
1.497823250E0,1.628579795E-1,1.305280626E-2,1.072254311E-2
1.502882000E0,1.617927253E-1,5.595962517E-3,1.232043747E-2
1.507940802E0,1.585969180E-1,-1.860882156E-3,1.125517488E-2
1.513018562E0,1.543358713E-1,-1.091562212E-2,1.232043747E-2
1.518077364E0,1.458137631E-1,-2.156825736E-2,1.658149064E-2
1.523136166E0,1.303674430E-1,-2.955773287E-2,1.658149064E-2
1.528194916E0,1.079969108E-1,-3.648194298E-2,1.817938685E-2
1.533253718E0,7.976742834E-2,-4.234089330E-2,1.711412333E-2
1.538312468E0,4.088531062E-2,-4.660194740E-2,1.977728121E-2
1.543287885E0,-2.790491097E-3,-4.766720906E-2,1.445096545E-2
1.548346687E0,-4.646629468E-2,-4.500405118E-2,1.018991135E-2
1.553405489E0,-9.120737016E-2,-3.701457754E-2,5.928857252E-3
1.558464291E0,-1.316873729E-1,-2.476404794E-2,1.667803153E-3
1.563523093E0,-1.689715981E-1,-1.624193974E-2,-9.953556582E-4
1.568581843E0,-1.961358190E-1,-2.393513918E-3,-7.919568568E-3
1.573635854E0,-2.126473933E-1,1.252017543E-2,-1.484378148E-2
1.578694656E0,-2.195716202E-1,3.009702265E-2,-1.910483651E-2
1.583753458E0,-2.158432007E-1,4.714124277E-2,-2.283325978E-2
1.588812260E0,-2.089189887E-1,5.992439762E-2,-2.975746989E-2
1.593871062E0,-1.950705647E-1,7.270756364E-2,-2.975746989E-2
1.598929864E0,-1.785589755E-1,7.696861774E-2,-2.709431201E-2
1.603981479E0,-1.583189666E-1,7.856650651E-2,-2.869220637E-2
1.609040281E0,-1.412747502E-1,7.909914106E-2,-2.602904849E-2
1.614099083E0,-1.199694872E-1,7.164230198E-2,-2.230062708E-2
1.619157885E0,-9.759894758E-2,5.726124719E-2,-1.857220381E-2
1.624216687E0,-7.682631165E-2,4.074965790E-2,-1.377851702E-2
1.629275437E0,-5.711893365E-2,2.050965093E-2,-9.517463855E-3
1.634314291E0,-3.794418648E-2,8.022767142E-4,-4.191146232E-3
1.639373041E0,-1.450838894E-2,-1.837246679E-2,-3.125882475E-3
1.644431843E0,7.329512388E-3,-3.861247003E-2,-1.527987421E-3
1.649490593E0,2.810215019E-2,-5.033036694E-2,3.265698440E-3
1.654549448E0,4.461373389E-2,-5.618931726E-2,5.928857252E-3
1.659608198E0,6.272321194E-2,-5.512405559E-2,4.330961965E-3
1.664677260E0,7.603900135E-2,-5.192826316E-2,6.994120777E-3
1.669736010E0,8.615901321E-2,-4.180826619E-2,6.461489014E-3
1.674794864E0,1.005400643E-1,-3.009036556E-2,5.928857252E-3
1.679853614E0,1.138558537E-1,-1.730720326E-2,3.798330203E-3
1.684912468E0,1.229105964E-1,-5.056672730E-3,3.265698440E-3
1.689971218E0,1.324979663E-1,3.465435468E-3,2.733066678E-3
1.695004604E0,1.388895512E-1,9.857015684E-3,2.733066678E-3
1.700063302E0,1.458137631E-1,1.252017543E-2,3.798330203E-3
1.705122156E0,1.511400789E-1,1.092227921E-2,4.330961965E-3
1.710180958E0,1.585969180E-1,8.791752160E-3,4.863593727E-3
1.715239760E0,1.601948291E-1,3.465435468E-3,5.928857252E-3
1.720298562E0,1.575316638E-1,-5.056672730E-3,5.396225490E-3
1.725368875E0,1.543358713E-1,-1.304614916E-2,4.330961965E-3
1.730427677E0,1.468790323E-1,-2.476404794E-2,7.526752539E-3
1.735486479E0,1.378242970E-1,-3.115562722E-2,9.657279588E-3
1.740545281E0,1.250411272E-1,-3.435141966E-2,1.232043747E-2
1.745604083E0,1.037358567E-1,-3.914510086E-2,1.285307016E-2
1.750662885E0,7.390847802E-2,-4.500405118E-2,1.445096545E-2
1.755713510E0,3.502636030E-2,-4.873247072E-2,1.338570192E-2
1.760772312E0,-4.388386384E-3,-4.287352785E-2,1.018991135E-2
1.765831114E0,-4.912945628E-2,-4.021036997E-2,7.526752539E-3
1.770889916E0,-9.333789349E-2,-3.435141966E-2,3.265698440E-3
1.775948718E0,-1.348831654E-1,-2.476404794E-2,-4.627237795E-4
1.781007521E0,-1.668410748E-1,-1.198088564E-2,-4.723777995E-3
1.786062260E0,-1.956031919E-1,-7.956185727E-4,-1.164799090E-2
1.791121062E0,-2.105168700E-1,1.411807165E-2,-1.803957298E-2
1.796179864E0,-2.142453045E-1,2.903176099E-2,-2.336589061E-2
1.801238666E0,-2.115821391E-1,4.394545034E-2,-2.549641766E-2
1.806297468E0,-2.025274038E-1,5.832650885E-2,-3.135536611E-2
1.811356218E0,-1.881463528E-1,6.897913665E-2,-3.135536611E-2
1.816405698E0,-1.705695093E-1,7.324019074E-2,-3.029010445E-2
1.821464500E0,-1.513947546E-1,7.696861774E-2,-2.869220637E-2
1.826523302E0,-1.300894767E-1,7.590334862E-2,-2.762694471E-2
1.831582104E0,-1.087842211E-1,6.738124788E-2,-2.283325978E-2
1.836640906E0,-8.801157773E-2,5.619597808E-2,-2.123536170E-2
1.841699708E0,-6.777156889E-2,3.915176913E-2,-1.803957298E-2
1.846753302E0,-4.912945628E-2,2.050965093E-2,-1.218062267E-2
1.851812104E0,-2.782418393E-2,8.022767142E-4,-5.789041519E-3
1.856870906E0,-4.921018146E-3,-1.837246679E-2,-4.191146232E-3
1.861929708E0,1.478635706E-2,-3.435141966E-2,6.025396870E-4
1.866988510E0,3.236320242E-2,-4.606931284E-2,3.798330203E-3
1.872047312E0,5.047268048E-2,-5.299352482E-2,6.461489014E-3
1.877085854E0,6.645163149E-2,-5.405879393E-2,6.994120777E-3
1.882144656E0,7.976742834E-2,-4.660194740E-2,7.526752539E-3
1.887203458E0,9.414847940E-2,-4.074299708E-2,9.657279588E-3
1.892262260E0,1.042684838E-1,-2.902510203E-2,1.072254311E-2
1.897321062E0,1.175842807E-1,-1.464404445E-2,9.124647826E-3
1.902379864E0,1.277042925E-1,-3.991409205E-3,6.994120777E-3
1.907445750E0,1.340958774E-1,6.128593348E-3,9.124647826E-3
1.912504552E0,1.442158669E-1,1.198754273E-2,9.657279588E-3
1.917563354E0,1.490095556E-1,1.571596600E-2,1.018991135E-2
1.922622156E0,1.543358713E-1,1.358543709E-2,1.285307016E-2
1.927680958E0,1.585969180E-1,7.726490498E-3,1.391833369E-2
1.932739760E0,1.591295600E-1,3.998067230E-3,1.285307016E-2
1.937790281E0,1.580643058E-1,-5.056672730E-3,1.604885980E-2
1.942849031E0,1.532706171E-1,-1.411141269E-2,1.604885980E-2
1.947907833E0,1.436832398E-1,-2.263352089E-2,1.871201769E-2
1.952966635E0,1.282369196E-1,-3.168826178E-2,2.084254473E-2
1.958025437E0,1.085295379E-1,-3.861247003E-2,2.084254473E-2
1.963084239E0,8.189795911E-2,-4.340615496E-2,2.190780826E-2
1.968125333E0,4.994004965E-2,-4.926510528E-2,2.030991390E-2
1.973184083E0,9.992672130E-3,-4.979773983E-2,1.764675602E-2
1.978242885E0,-3.261787072E-2,-4.766720906E-2,1.604885980E-2
1.983301687E0,-7.629367709E-2,-4.234089330E-2,1.125517488E-2
1.988360489E0,-1.194368452E-1,-2.955773287E-2,5.928857252E-3
1.993419291E0,-1.588515937E-1,-1.890509762E-2,6.990798283E-5
1.998484760E0,-1.908095032E-1,-6.121936254E-3,-2.593250712E-3
2.003543562E0,-2.115821391E-1,8.791752160E-3,-9.517463855E-3
2.008602364E0,-2.206368893E-1,2.477070689E-2,-1.377851702E-2
2.013661166E0,-2.185063660E-1,4.181492701E-2,-1.750694029E-2
2.018719968E0,-2.142453045E-1,5.832650885E-2,-2.389852330E-2
2.023778771E0,-2.014621496E-1,6.951177120E-2,-2.336589061E-2
2.028833146E0,-1.817547679E-1,7.803387940E-2,-2.389852330E-2
2.033891948E0,-1.631126553E-1,8.122966439E-2,-2.176799625E-2
2.038950750E0,-1.407421231E-1,8.336019516E-2,-2.070273086E-2
2.044009552E0,-1.199694872E-1,7.856650651E-2,-1.963746734E-2
2.049068354E0,-1.013273671E-1,6.684861332E-2,-1.803957298E-2
2.054127156E0,-8.215262741E-2,5.193492398E-2,-1.271325443E-2
2.059184187E0,-6.244525313E-2,3.435808048E-2,-9.517463855E-3
2.064242989E0,-4.273787513E-2,1.198754273E-2,-6.321672350E-3
2.069301791E0,-2.143260092E-2,-8.252463304E-3,-4.191146232E-3
2.074360593E0,-1.725227106E-3,-2.529668063E-2,-1.527987421E-3
2.079419396E0,2.011267468E-2,-4.021036997E-2,1.135171507E-3
2.084478198E0,4.195057601E-2,-4.766720906E-2,2.733066678E-3
2.089547521E0,6.165795028E-2,-4.979773983E-2,2.200434916E-3
2.094606375E0,7.337584347E-2,-4.819984362E-2,3.798330203E-3
2.099665125E0,8.882216364E-2,-3.861247003E-2,6.994120777E-3
2.104723927E0,1.032032222E-1,-2.902510203E-2,7.526752539E-3
2.109782729E0,1.175842807E-1,-1.837246679E-2,6.461489014E-3
2.114841531E0,1.282369196E-1,-6.654568017E-3,5.396225490E-3
2.119836062E0,1.356937587E-1,4.530698992E-3,8.059384301E-3
2.124894916E0,1.463463902E-1,1.145491190E-2,6.461489014E-3
2.129953666E0,1.522053480E-1,1.678122953E-2,5.928857252E-3
2.135012521E0,1.601948291E-1,1.944438741E-2,5.396225490E-3
2.140071271E0,1.649885029E-1,1.678122953E-2,8.592016064E-3
2.145130073E0,1.687169373E-1,1.518333517E-2,1.072254311E-2
2.150216531E0,1.660537720E-1,7.726490498E-3,9.124647826E-3
2.155274500E0,1.607274413E-1,8.022767142E-4,8.592016064E-3
2.160332416E0,1.538032442E-1,-9.850358590E-3,1.018991135E-2
2.165390333E0,1.388895512E-1,-2.263352089E-2,1.072254311E-2
2.170448250E0,1.165190190E-1,-3.222088888E-2,1.072254311E-2
2.175506166E0,8.509374410E-2,-3.754720837E-2,1.391833369E-2
2.180537156E0,4.940741882E-2,-4.553668573E-2,1.338570192E-2
2.185595073E0,3.068458289E-3,-4.819984362E-2,1.018991135E-2
2.190652989E0,-4.273787513E-2,-4.713458195E-2,6.461489014E-3
2.195710958E0,-9.120737016E-2,-4.234089330E-2,6.025396870E-4
2.200768823E0,-1.364810616E-1,-3.222088888E-2,-3.658514237E-3
2.205826739E0,-1.705695093E-1,-1.997036114E-2,-9.517463855E-3
2.210911479E0,-1.998642385E-1,-4.524040967E-3,-1.377851702E-2
2.215969396E0,-2.174410820E-1,1.092227921E-2,-1.963746734E-2
2.221027312E0,-2.238326669E-1,3.222754970E-2,-2.230062708E-2
2.226085229E0,-2.211695164E-1,5.033702776E-2,-2.815957554E-2
2.231143146E0,-2.115821391E-1,6.738124788E-2,-3.082273528E-2
2.236201062E0,-1.961358190E-1,7.909914106E-2,-3.029010445E-2
2.241237729E0,-1.774937212E-1,8.602335304E-2,-3.029010445E-2
2.246295646E0,-1.572537124E-1,8.762124926E-2,-2.815957554E-2
2.251353562E0,-1.391442269E-1,8.495809138E-2,-2.496378496E-2
2.256411531E0,-1.135778949E-1,7.483808696E-2,-2.123536170E-2
2.261469448E0,-9.759894758E-2,5.885913596E-2,-1.750694029E-2
2.266527364E0,-7.469578832E-2,4.074965790E-2,-1.324588619E-2
2.271578354E0,-5.392313749E-2,1.997702010E-2,-8.984832093E-3
2.276636271E0,-3.315050155E-2,-3.458777443E-3,-5.256409757E-3
2.281694187E0,-1.184522919E-2,-2.316615172E-2,-2.593250712E-3
2.286752156E0,9.460039437E-3,-3.807983920E-2,2.200434916E-3
2.291810073E0,3.076531179E-2,-5.086300150E-2,6.025396870E-4
2.296867989E0,4.727689177E-2,-5.885248259E-2,5.396225490E-3
2.301956010E0,6.591900438E-2,-5.405879393E-2,7.526752539E-3
2.307013927E0,7.870216668E-2,-5.139563605E-2,9.124647826E-3
2.312071843E0,9.361585230E-2,-4.074299708E-2,6.994120777E-3
2.317129760E0,1.053337455E-1,-2.955773287E-2,8.059384301E-3
2.322187677E0,1.175842807E-1,-1.730720326E-2,5.396225490E-3
2.327245593E0,1.282369196E-1,-6.654568017E-3,6.461489014E-3
2.332303250E0,1.383569241E-1,1.867540181E-3,4.330961965E-3
2.337361166E0,1.452811211E-1,1.038964838E-2,5.396225490E-3
2.342419083E0,1.522053480E-1,1.305280626E-2,4.863593727E-3
2.347477000E0,1.575316638E-1,1.411807165E-2,3.798330203E-3
2.352534916E0,1.639232486E-1,1.145491190E-2,4.330961965E-3
2.357592833E0,1.665864140E-1,7.193857804E-3,6.461489014E-3
2.362611114E0,1.665864140E-1,-2.629868104E-4,5.396225490E-3
2.367669031E0,1.633906066E-1,-6.654568017E-3,5.928857252E-3
2.372726948E0,1.543358713E-1,-1.304614916E-2,1.072254311E-2
2.377784916E0,1.468790323E-1,-2.369878255E-2,1.072254311E-2
2.382842833E0,1.298348159E-1,-3.275352344E-2,1.018991135E-2
2.387900698E0,1.037358567E-1,-3.967773542E-2,1.445096545E-2
2.392951843E0,7.603900135E-2,-4.606931284E-2,1.391833369E-2
2.398009812E0,3.662425652E-2,-5.033036694E-2,1.125517488E-2
2.403067729E0,-9.182071313E-3,-5.459142849E-2,9.124647826E-3
2.408125646E0,-5.871682242E-2,-4.873247072E-2,4.863593727E-3
2.413183562E0,-1.055884287E-1,-3.914510086E-2,6.990798283E-5
2.418241479E0,-1.492642164E-1,-3.328615427E-2,-5.789041519E-3
2.423328198E0,-1.886789650E-1,-1.730720326E-2,-1.271325443E-2
2.428386114E0,-2.179737240E-1,-2.393513918E-3,-1.590904593E-2
2.433444031E0,-2.323547900E-1,1.465070248E-2,-2.336589061E-2
2.438502000E0,-2.360832095E-1,3.382544592E-2,-2.922483906E-2
2.443559864E0,-2.307568789E-1,5.246755853E-2,-3.188800067E-2
2.448617781E0,-2.185063660E-1,6.684861332E-2,-3.668168560E-2
2.453656010E0,-2.035926729E-1,7.696861774E-2,-3.561642021E-2
2.458713979E0,-1.833526641E-1,8.176229894E-2,-3.721431643E-2
2.463771896E0,-1.604494900E-1,8.389282972E-2,-3.774694726E-2
2.468829812E0,-1.375463307E-1,7.909914106E-2,-3.668168560E-2
2.473887729E0,-1.141105369E-1,6.791387498E-2,-3.242063150E-2
2.478945646E0,-9.280525893E-2,5.406545475E-2,-2.443115413E-2
2.484023614E0,-7.149999589E-2,3.702123836E-2,-2.230062708E-2
2.489081531E0,-4.912945628E-2,1.571596600E-2,-1.590904593E-2
2.494139448E0,-2.409575880E-2,-7.187199779E-3,-1.111535914E-2
2.499197364E0,-2.257859334E-3,-2.636194229E-2,-1.058272738E-2
2.504255333E0,1.958004385E-2,-4.287352785E-2,-7.386936806E-3
2.509313198E0,4.195057601E-2,-5.459142849E-2,-2.593250712E-3
2.514383666E0,6.059268862E-2,-5.831984803E-2,-9.953556582E-4
2.519441583E0,7.657163590E-2,-5.725458637E-2,6.025396870E-4
2.524499500E0,9.308321774E-2,-5.459142849E-2,2.733066678E-3
2.529557416E0,1.079969108E-1,-4.393878952E-2,2.733066678E-3
2.534615333E0,1.181169152E-1,-3.328615427E-2,3.798330203E-3
2.539673302E0,1.314327121E-1,-2.156825736E-2,3.265698440E-3
2.544727937E0,1.426179856E-1,-1.038299035E-2,4.330961965E-3
2.549785854E0,1.527379751E-1,1.867540181E-3,8.059384301E-3
2.554843771E0,1.623253524E-1,9.324384853E-3,8.592016064E-3
2.559901739E0,1.697821915E-1,1.358543709E-2,8.592016064E-3
2.564959656E0,1.751085073E-1,1.305280626E-2,9.124647826E-3
2.570017521E0,1.793695688E-1,9.857015684E-3,9.124647826E-3
2.575076114E0,1.830979884E-1,3.998067230E-3,1.232043747E-2
2.580134031E0,1.825653464E-1,-1.328250859E-3,1.445096545E-2
2.585191948E0,1.793695688E-1,-7.719831541E-3,1.445096545E-2
2.590249864E0,1.756411493E-1,-1.730720326E-2,1.445096545E-2
2.595307781E0,1.628579795E-1,-2.263352089E-2,1.711412333E-2
2.600365698E0,1.474116594E-1,-3.009036556E-2,1.711412333E-2
2.605423146E0,1.255737692E-1,-3.435141966E-2,1.977728121E-2
2.610481114E0,9.681164473E-2,-3.861247003E-2,2.084254473E-2
2.615539031E0,6.006005406E-2,-4.447142407E-2,2.137517743E-2
2.620596948E0,1.958004385E-2,-4.180826619E-2,1.711412333E-2
2.625654864E0,-2.995471098E-2,-3.914510086E-2,1.498359721E-2
2.630712781E0,-7.469578832E-2,-3.328615427E-2,1.178780664E-2
2.635757833E0,-1.199694872E-1,-2.263352089E-2,8.592016064E-3
2.640815750E0,-1.641779244E-1,-1.411141269E-2,2.733066678E-3
2.645873666E0,-1.987989843E-1,-2.926145680E-3,-1.527987421E-3
2.650931583E0,-2.201042473E-1,8.259121329E-3,-7.386936806E-3
2.655989552E0,-2.328874022E-1,2.370544150E-2,-1.271325443E-2
2.661047468E0,-2.344853133E-1,4.234755412E-2,-1.750694029E-2
2.666090802E0,-2.264958322E-1,6.045703217E-2,-1.963746734E-2
2.671148771E0,-2.158432007E-1,7.217492908E-2,-2.123536170E-2
2.676206687E0,-2.003968805E-1,8.282756805E-2,-2.283325978E-2
2.681264604E0,-1.780263335E-1,8.655598760E-2,-2.070273086E-2
2.686322521E0,-1.588515937E-1,8.655598760E-2,-1.857220381E-2
2.691380437E0,-1.375463307E-1,8.282756805E-2,-1.431114879E-2
2.696431948E0,-1.162410602E-1,7.377282530E-2,-9.517463855E-3
2.701489864E0,-9.227263182E-2,5.779387429E-2,-4.191146232E-3
2.706547833E0,-6.883683056E-2,3.702123836E-2,6.990798283E-5
2.711605750E0,-4.806419089E-2,1.305280626E-2,5.396225490E-3
2.716663666E0,-2.729155309E-2,-7.187199779E-3,1.072254311E-2
2.721721583E0,-1.273322268E-4,-2.636194229E-2,1.445096545E-2
2.726799500E0,1.958004385E-2,-4.500405118E-2,1.498359721E-2
2.731857416E0,4.035267979E-2,-5.565669015E-2,1.711412333E-2
2.736915333E0,5.952742323E-2,-5.831984803E-2,2.084254473E-2
2.741973250E0,7.444110513E-2,-5.725458637E-2,2.084254473E-2
2.747031218E0,8.615901321E-2,-5.086300150E-2,2.137517743E-2
2.752089135E0,1.010726988E-1,-3.914510086E-2,2.350570261E-2
2.757158666E0,1.127905920E-1,-2.529668063E-2,2.244044095E-2
2.762216583E0,1.218453348E-1,-1.357878093E-2,2.084254473E-2
2.767274500E0,1.335632354E-1,2.696449519E-4,2.084254473E-2
2.772332416E0,1.415527016E-1,1.038964838E-2,1.977728121E-2
2.777390333E0,1.468790323E-1,1.518333517E-2,1.817938685E-2
2.782448250E0,1.559337676E-1,1.465070248E-2,1.764675602E-2
2.787503198E0,1.601948291E-1,1.411807165E-2,2.030991390E-2
2.792561114E0,1.623253524E-1,1.145491190E-2,2.190780826E-2
2.797619031E0,1.644558758E-1,3.465435468E-3,2.190780826E-2
2.802676948E0,1.633906066E-1,-6.121936254E-3,2.084254473E-2
2.807734864E0,1.559337676E-1,-1.304614916E-2,2.350570261E-2
2.812792781E0,1.420853436E-1,-2.316615172E-2,2.350570261E-2
2.817849396E0,1.250411272E-1,-3.115562722E-2,2.616886422E-2
2.822907312E0,1.037358567E-1,-3.861247003E-2,2.936465293E-2
2.827965229E0,6.858216226E-2,-4.393878952E-2,2.936465293E-2
2.833023146E0,2.117793821E-2,-4.926510528E-2,2.670149505E-2
2.838081062E0,-2.089997008E-2,-4.979773983E-2,2.350570261E-2
2.843138979E0,-7.256525755E-2,-4.766720906E-2,1.764675602E-2
2.848199812E0,-1.263610721E-1,-4.021036997E-2,1.125517488E-2
2.853257729E0,-1.737652868E-1,-2.795983851E-2,4.330961965E-3
2.858315646E0,-2.099842578E-1,-1.730720326E-2,-3.658514237E-3
2.863373614E0,-2.382137328E-1,-7.956185727E-4,-7.386936806E-3
2.868431531E0,-2.493990064E-1,2.104228176E-2,-1.484378148E-2
2.873489448E0,-2.520621419E-1,4.181492701E-2,-2.283325978E-2
2.878531114E0,-2.467358410E-1,6.152229384E-2,-2.815957554E-2
2.883589031E0,-2.355505675E-1,8.016440272E-2,-3.082273528E-2
2.888646948E0,-2.163758278E-1,9.401282668E-2,-3.401852399E-2
2.893704916E0,-1.929400265E-1,1.009370461E-1,-3.401852399E-2
2.898762833E0,-1.673737019E-1,1.030675694E-1,-3.135536611E-2
2.903820750E0,-1.434052736E-1,9.933914244E-2,-2.922483906E-2
2.908879916E0,-1.221000105E-1,8.762124926E-2,-2.762694471E-2
2.913937833E0,-9.600105137E-2,7.057703286E-2,-2.602904849E-2
2.918995750E0,-7.416314632E-2,4.660860822E-2,-2.017010003E-2
2.924053666E0,-5.019471794E-2,2.317281067E-2,-1.377851702E-2
2.929111583E0,-2.675891854E-2,-2.926145680E-3,-8.452200331E-3
2.934169552E0,-3.323122859E-3,-2.316615172E-2,-3.125882475E-3
2.939237989E0,2.277583443E-2,-3.914510086E-2,-1.527987421E-3
2.944295958E0,4.621163011E-2,-5.246089771E-2,1.135171507E-3
2.949353875E0,6.378847361E-2,-5.885248259E-2,2.733066678E-3
2.954411843E0,8.456110954E-2,-5.831984803E-2,2.200434916E-3
2.959469708E0,1.016053334E-1,-5.459142849E-2,3.798330203E-3
2.964527677E0,1.127905920E-1,-4.340615496E-2,6.025396870E-4
2.969600541E0,1.271716505E-1,-3.168826178E-2,2.200434916E-3
2.974658458E0,1.394221783E-1,-1.837246679E-2,6.025396870E-4
2.979716427E0,1.516727209E-1,-2.926145680E-3,-4.191146232E-3
2.984774343E0,1.628579795E-1,8.259121329E-3,-4.723777995E-3
2.989832260E0,1.719127148E-1,1.305280626E-2,-3.658514237E-3
2.994890177E0,1.793695688E-1,1.678122953E-2,-6.321672350E-3
2.999917729E0,1.830979884E-1,1.944438741E-2,-5.256409757E-3
3.004975698E0,1.868264079E-1,1.731386036E-2,-2.593250712E-3
3.010033614E0,1.932179928E-1,1.305280626E-2,-2.593250712E-3
3.015091583E0,1.932179928E-1,4.530698992E-3,-3.125882475E-3
3.020149448E0,1.926853657E-1,-3.458777443E-3,6.025396870E-4
3.025207416E0,1.894895583E-1,-1.251351740E-2,3.798330203E-3
3.030259135E0,1.809674501E-1,-2.210089006E-2,3.798330203E-3
3.035317052E0,1.687169373E-1,-3.168826178E-2,6.461489014E-3
3.040374968E0,1.479442865E-1,-3.861247003E-2,1.072254311E-2
3.045432885E0,1.234432310E-1,-4.447142407E-2,1.285307016E-2
3.050490802E0,9.042005986E-2,-4.660194740E-2,1.232043747E-2
3.055548771E0,5.366847664E-2,-4.819984362E-2,9.657279588E-3
3.060703510E0,1.159056649E-2,-4.873247072E-2,9.657279588E-3
3.065761427E0,-3.741155565E-2,-4.340615496E-2,2.733066678E-3
3.070819343E0,-8.801157773E-2,-3.488404676E-2,-2.060619183E-3
3.075877260E0,-1.332852840E-1,-2.636194229E-2,-9.517463855E-3
3.080935177E0,-1.753631830E-1,-1.517667621E-2,-1.537641417E-2
3.085993093E0,-2.089189887E-1,-1.328250859E-3,-2.123536170E-2
3.090958979E0,-2.291589975E-1,1.198754273E-2,-2.602904849E-2
3.096016896E0,-2.376810908E-1,2.956439182E-2,-2.975746989E-2
3.101074812E0,-2.387463748E-1,4.501071200E-2,-3.455115855E-2
3.106132729E0,-2.275611013E-1,6.152229384E-2,-3.934484348E-2
3.111190646E0,-2.158432007E-1,7.430545241E-2,-3.881220892E-2
3.116248562E0,-1.961358190E-1,8.229493350E-2,-3.934484348E-2
3.121305229E0,-1.737652868E-1,8.495809138E-2,-3.774694726E-2
3.126363146E0,-1.524600238E-1,8.336019516E-2,-3.348589316E-2
3.131421062E0,-1.290242225E-1,7.696861774E-2,-2.869220637E-2
3.136478979E0,-1.055884287E-1,6.578334421E-2,-2.602904849E-2
3.141536896E0,-8.375051618E-2,4.927176610E-2,-1.697430946E-2
3.146594864E0,-6.031472608E-2,2.636859939E-2,-1.111535914E-2
3.151636375E0,-3.528102860E-2,5.595962517E-3,-6.321672350E-3
3.156694083E0,-1.450838894E-2,-1.570930704E-2,-1.527987421E-3
3.161751843E0,8.927408606E-3,-3.381878510E-2,6.025396870E-4
3.166809552E0,3.396109864E-2,-4.873247072E-2,1.667803153E-3
3.171867260E0,5.207058042E-2,-5.725458637E-2,4.863593727E-3
3.176925021E0,7.071268559E-2,-5.938510969E-2,8.592016064E-3
3.182000593E0,8.669164032E-2,-5.778721347E-2,1.072254311E-2
3.187058302E0,9.947480261E-2,-5.033036694E-2,1.178780664E-2
3.192116062E0,1.127905920E-1,-3.754720837E-2,1.125517488E-2
3.197173771E0,1.245084926E-1,-2.476404794E-2,1.338570192E-2
3.202231479E0,1.372916549E-1,-9.317726828E-3,1.551622897E-2
3.207289239E0,1.490095556E-1,-7.956185727E-4,1.551622897E-2
3.212349812E0,1.543358713E-1,8.259121329E-3,1.445096545E-2
3.217407573E0,1.591295600E-1,1.092227921E-2,1.924465038E-2
3.222465229E0,1.681842953E-1,1.305280626E-2,1.711412333E-2
3.227522989E0,1.729779840E-1,1.092227921E-2,1.551622897E-2
3.232580698E0,1.767064035E-1,4.530698992E-3,2.137517743E-2
3.237638406E0,1.767064035E-1,-3.458777443E-3,2.137517743E-2
3.242692260E0,1.751085073E-1,-1.198088564E-2,2.244044095E-2
3.247749968E0,1.665864140E-1,-1.943773031E-2,2.244044095E-2
3.252807677E0,1.532706171E-1,-2.955773287E-2,2.403833717E-2
3.257865437E0,1.319653392E-1,-3.701457754E-2,2.723412588E-2
3.262923146E0,1.053337455E-1,-4.340615496E-2,2.883202210E-2
3.267980854E0,6.858216226E-2,-5.139563605E-2,2.670149505E-2
3.273051114E0,2.597162500E-2,-5.459142849E-2,2.510360070E-2
3.278108875E0,-2.729155309E-2,-5.405879393E-2,2.297307178E-2
3.283166583E0,-8.002210408E-2,-4.819984362E-2,1.551622897E-2
3.288224291E0,-1.284915954E-1,-3.648194298E-2,1.285307016E-2
3.293282052E0,-1.748305559E-1,-2.636194229E-2,6.461489014E-3
3.298339760E0,-2.137126774E-1,-1.251351740E-2,-2.060619183E-3
3.303399656E0,-2.392789871E-1,2.932803705E-3,-7.386936806E-3
3.308457416E0,-2.515295148E-1,2.210754529E-2,-1.111535914E-2
3.313515125E0,-2.563231885E-1,4.394545034E-2,-1.857220381E-2
3.318572833E0,-2.488663495E-1,6.312018633E-2,-2.230062708E-2
3.323630593E0,-2.350179404E-1,8.176229894E-2,-2.602904849E-2
3.328688302E0,-2.169084698E-1,9.294756502E-2,-2.709431201E-2
3.333744968E0,-1.956031919E-1,1.004044041E-1,-2.549641766E-2
3.338802729E0,-1.700368673E-1,1.020023078E-1,-2.496378496E-2
3.343860437E0,-1.466010809E-1,9.614335746E-2,-2.230062708E-2
3.348918146E0,-1.226326525E-1,8.495809138E-2,-1.750694029E-2
3.353975906E0,-1.002621055E-1,6.951177120E-2,-1.537641417E-2
3.359033666E0,-7.629367709E-2,4.607598111E-2,-7.919568568E-3
3.364078406E0,-5.498840287E-2,2.317281067E-2,-4.191146232E-3
3.369136166E0,-3.048734181E-2,-2.393513918E-3,6.990798283E-5
3.374193823E0,-6.518913433E-3,-2.689457498E-2,4.330961965E-3
3.379251583E0,1.798214763E-2,-4.393878952E-2,7.526752539E-3
3.384309343E0,4.195057601E-2,-5.618931726E-2,1.018991135E-2
3.389367052E0,6.272321194E-2,-6.204826757E-2,1.072254311E-2
3.394423979E0,7.923479378E-2,-6.204826757E-2,1.338570192E-2
3.399481739E0,9.574637562E-2,-5.618931726E-2,1.445096545E-2
3.404539396E0,1.117253304E-1,-4.553668573E-2,1.232043747E-2
3.409597156E0,1.229105964E-1,-3.009036556E-2,1.232043747E-2
3.414654864E0,1.378242970E-1,-1.730720326E-2,1.232043747E-2
3.419712625E0,1.511400789E-1,-2.926145680E-3,1.178780664E-2
3.424771218E0,1.585969180E-1,9.324384853E-3,1.125517488E-2
3.429828979E0,1.671190262E-1,1.678122953E-2,1.125517488E-2
3.434886635E0,1.761737764E-1,1.784649305E-2,1.125517488E-2
3.439944396E0,1.820327342E-1,1.678122953E-2,1.285307016E-2
3.445002156E0,1.846958697E-1,1.092227921E-2,1.445096545E-2
3.450059864E0,1.921527237E-1,6.661225110E-3,1.338570192E-2
3.455118198E0,1.916200966E-1,-2.926145680E-3,1.551622897E-2
3.460175906E0,1.894895583E-1,-1.091562212E-2,1.604885980E-2
3.465233614E0,1.788369268E-1,-1.943773031E-2,1.764675602E-2
3.470291375E0,1.660537720E-1,-2.795983851E-2,2.030991390E-2
3.475349083E0,1.495421827E-1,-3.594931215E-2,2.084254473E-2
3.480406791E0,1.255737692E-1,-4.340615496E-2,2.030991390E-2
3.485463458E0,9.414847940E-2,-4.766720906E-2,1.977728121E-2
3.490521166E0,5.313584208E-2,-5.033036694E-2,1.924465038E-2
3.495578875E0,9.992672130E-3,-5.033036694E-2,1.445096545E-2
3.500636635E0,-3.741155565E-2,-4.500405118E-2,1.072254311E-2
3.505694343E0,-8.161999285E-2,-3.807983920E-2,5.396225490E-3
3.510752104E0,-1.279589534E-1,-2.742720582E-2,6.025396870E-4
3.515824812E0,-1.673737019E-1,-1.624193974E-2,-3.658514237E-3
3.520882573E0,-1.998642385E-1,-2.629868104E-4,-1.111535914E-2
3.525940281E0,-2.206368893E-1,1.731386036E-2,-2.017010003E-2
3.530997989E0,-2.312895209E-1,3.222754970E-2,-2.176799625E-2
3.536055750E0,-2.307568789E-1,4.873913899E-2,-2.656168118E-2
3.541113458E0,-2.254305780E-1,6.471808255E-2,-3.348589316E-2
3.546171375E0,-2.110495120E-1,7.909914106E-2,-3.614905104E-2
3.551229135E0,-1.908095032E-1,8.549071848E-2,-3.668168560E-2
3.556286843E0,-1.711021215E-1,8.815388381E-2,-3.508378938E-2
3.561344552E0,-1.481989622E-1,8.708862215E-2,-3.242063150E-2
3.566402312E0,-1.268936992E-1,8.016440272E-2,-2.762694471E-2
3.571460021E0,-1.007947400E-1,6.844650954E-2,-2.443115413E-2
3.576517312E0,-7.789157331E-2,4.927176610E-2,-1.963746734E-2
3.581575073E0,-5.711893365E-2,2.956439182E-2,-1.484378148E-2
3.586632781E0,-3.261787072E-2,7.726490498E-3,-8.984832093E-3
3.591690541E0,-9.714702144E-3,-1.304614916E-2,-6.321672350E-3
3.596748250E0,1.372109354E-2,-3.381878510E-2,-3.658514237E-3
3.601805958E0,3.715689108E-2,-4.819984362E-2,6.025396870E-4
3.606837468E0,5.792952701E-2,-5.778721347E-2,1.667803153E-3
3.611895177E0,7.390847802E-2,-5.831984803E-2,5.396225490E-3
3.616952885E0,9.042005986E-2,-5.405879393E-2,8.059384301E-3
3.622010646E0,1.053337455E-1,-4.553668573E-2,6.994120777E-3
3.627068406E0,1.202474460E-1,-3.381878510E-2,4.863593727E-3
3.632126062E0,1.303674430E-1,-2.316615172E-2,5.928857252E-3
3.637199552E0,1.426179856E-1,-9.850358590E-3,7.526752539E-3
3.642257260E0,1.522053480E-1,2.400171012E-3,4.330961965E-3
3.647315021E0,1.591295600E-1,8.791752160E-3,4.863593727E-3
3.652372729E0,1.676516682E-1,1.411807165E-2,4.330961965E-3
3.657430437E0,1.740432382E-1,1.411807165E-2,4.330961965E-3
3.662488146E0,1.751085073E-1,1.252017543E-2,4.863593727E-3
3.667543458E0,1.761737764E-1,8.791752160E-3,7.526752539E-3
3.672601166E0,1.740432382E-1,-2.629868104E-4,8.059384301E-3
3.677658875E0,1.697821915E-1,-9.850358590E-3,1.178780664E-2
3.682716635E0,1.580643058E-1,-2.050299384E-2,1.445096545E-2
3.687774343E0,1.436832398E-1,-3.009036556E-2,1.604885980E-2
3.692832104E0,1.186495423E-1,-4.074299708E-2,1.711412333E-2
3.697892156E0,8.988742530E-2,-5.033036694E-2,1.924465038E-2
3.702949916E0,5.153794959E-2,-5.618931726E-2,1.658149064E-2
3.708007573E0,3.068458289E-3,-5.938510969E-2,1.498359721E-2
3.713065333E0,-4.380313680E-2,-5.725458637E-2,1.072254311E-2
3.718123041E0,-9.014210850E-2,-4.926510528E-2,1.072254311E-2
3.723180750E0,-1.343505383E-1,-3.594931215E-2,6.994120777E-3
3.728254708E0,-1.748305559E-1,-2.050299384E-2,1.667803153E-3
3.733312416E0,-2.041253000E-1,-3.991409205E-3,-2.593250712E-3
3.738370125E0,-2.201042473E-1,1.358543709E-2,-8.452200331E-3
3.743427885E0,-2.286263555E-1,3.808650002E-2,-1.271325443E-2
3.748485593E0,-2.264958322E-1,5.779387429E-2,-1.963746734E-2
3.753543302E0,-2.169084698E-1,7.217492908E-2,-2.123536170E-2
3.758597104E0,-2.046579272E-1,8.122966439E-2,-2.176799625E-2
3.763654864E0,-1.865484416E-1,9.294756502E-2,-2.443115413E-2
3.768712573E0,-1.620474011E-1,9.774125367E-2,-2.336589061E-2
3.773770281E0,-1.386115849E-1,9.188230336E-2,-2.176799625E-2
3.778828041E0,-1.173063219E-1,8.176229894E-2,-1.644167677E-2
3.783885750E0,-9.759894758E-2,6.951177120E-2,-1.111535914E-2
3.788943198E0,-7.522841543E-2,5.193492398E-2,-6.321672350E-3
3.794000958E0,-5.392313749E-2,2.849912643E-2,-9.953556582E-4
3.799058666E0,-3.155260533E-2,5.063330755E-3,1.667803153E-3
3.804116375E0,-8.649440482E-3,-1.570930704E-2,4.330961965E-3
3.809174135E0,1.372109354E-2,-3.648194298E-2,1.018991135E-2
3.814231843E0,3.342846781E-2,-4.926510528E-2,1.232043747E-2
3.819325021E0,5.207058042E-2,-5.512405559E-2,1.285307016E-2
3.824382729E0,7.018005103E-2,-5.618931726E-2,1.604885980E-2
3.829440489E0,8.456110954E-2,-5.192826316E-2,1.658149064E-2
3.834498146E0,1.010726988E-1,-4.447142407E-2,1.871201769E-2
3.839555906E0,1.165190190E-1,-2.955773287E-2,1.711412333E-2
3.844613614E0,1.282369196E-1,-1.570930704E-2,1.658149064E-2
3.849672468E0,1.388895512E-1,-1.860882156E-3,1.391833369E-2
3.854730177E0,1.511400789E-1,8.259121329E-3,1.658149064E-2
3.859787937E0,1.580643058E-1,1.784649305E-2,1.764675602E-2
3.864845646E0,1.644558758E-1,2.317281067E-2,1.338570192E-2
3.869903406E0,1.724453568E-1,1.997702010E-2,1.391833369E-2
3.874961114E0,1.793695688E-1,1.678122953E-2,1.604885980E-2
3.879954396E0,1.846958697E-1,1.145491190E-2,1.871201769E-2
3.885012104E0,1.830979884E-1,4.530698992E-3,1.924465038E-2
3.890069864E0,1.745758802E-1,-7.187199779E-3,1.924465038E-2
3.895127573E0,1.660537720E-1,-1.730720326E-2,2.190780826E-2
3.900185281E0,1.522053480E-1,-2.636194229E-2,2.297307178E-2
3.905243041E0,1.298348159E-1,-3.435141966E-2,2.403833717E-2
3.910328093E0,1.021379605E-1,-4.393878952E-2,2.350570261E-2
3.915385854E0,6.378847361E-2,-4.926510528E-2,2.457096800E-2
3.920443614E0,1.958004385E-2,-5.139563605E-2,2.137517743E-2
3.925501271E0,-2.888944559E-2,-5.299352482E-2,1.764675602E-2
3.930559031E0,-8.108736575E-2,-4.660194740E-2,1.338570192E-2
3.935616791E0,-1.279589534E-1,-3.701457754E-2,8.059384301E-3
3.940695802E0,-1.721673906E-1,-2.476404794E-2,1.667803153E-3
3.945753510E0,-2.057231963E-1,-1.038299035E-2,-2.593250712E-3
3.950811218E0,-2.280937284E-1,8.791752160E-3,-8.984832093E-3
3.955868927E0,-2.430074215E-1,2.530333772E-2,-1.644167677E-2
3.960926687E0,-2.467358410E-1,4.607598111E-2,-2.336589061E-2
3.965984396E0,-2.371484637E-1,6.205492839E-2,-2.762694471E-2
3.971010750E0,-2.248979360E-1,7.696861774E-2,-2.656168118E-2
3.976068510E0,-2.062558234E-1,8.921914548E-2,-2.815957554E-2
3.981126218E0,-1.844179183E-1,9.561072290E-2,-2.922483906E-2
3.986183979E0,-1.636452824E-1,9.454546124E-2,-2.549641766E-2
3.991241687E0,-1.412747502E-1,8.975177258E-2,-2.070273086E-2
3.996299396E0,-1.183715835E-1,7.537071407E-2,-1.644167677E-2
4.001401635E0,-9.706631303E-2,5.885913596E-2,-1.218062267E-2
4.006459343E0,-7.576104999E-2,3.808650002E-2,-6.854305044E-3
4.011517052E0,-5.339050665E-2,1.198754273E-2,-3.125882475E-3
4.016574760E0,-2.995471098E-2,-9.317726828E-3,-9.953556582E-4
4.021632521E0,-5.453648977E-3,-2.955773287E-2,4.330961965E-3
4.026690229E0,1.958004385E-2,-4.766720906E-2,8.592016064E-3
4.031703146E0,4.195057601E-2,-5.831984803E-2,1.072254311E-2
4.036760854E0,6.378847361E-2,-6.258090585E-2,1.125517488E-2
4.041818562E0,8.243058622E-2,-5.991774425E-2,1.178780664E-2
4.046876271E0,9.840954095E-2,-5.246089771E-2,1.178780664E-2
4.051934031E0,1.085295379E-1,-4.127563164E-2,1.072254311E-2
4.056991739E0,1.218453348E-1,-2.795983851E-2,9.124647826E-3
4.062090541E0,1.346284896E-1,-1.411141269E-2,8.059384301E-3
4.067148302E0,1.447485089E-1,-2.393513918E-3,8.059384301E-3
4.072206010E0,1.548684984E-1,7.193857804E-3,5.396225490E-3
4.077263718E0,1.607274413E-1,1.358543709E-2,5.928857252E-3
4.082321479E0,1.681842953E-1,1.411807165E-2,7.526752539E-3
4.087379187E0,1.756411493E-1,1.411807165E-2,4.863593727E-3
4.092412364E0,1.825653464E-1,9.857015684E-3,6.461489014E-3
4.097470125E0,1.857611388E-1,8.022767142E-4,8.592016064E-3
4.102527885E0,1.846958697E-1,-7.187199779E-3,1.125517488E-2
4.107585593E0,1.841632575E-1,-1.517667621E-2,1.178780664E-2
4.112643302E0,1.745758802E-1,-2.529668063E-2,1.498359721E-2
4.117701010E0,1.596621871E-1,-3.435141966E-2,1.445096545E-2
4.122746739E0,1.394221783E-1,-4.234089330E-2,1.658149064E-2
4.127804448E0,1.138558537E-1,-4.660194740E-2,1.498359721E-2
4.132862156E0,7.976742834E-2,-4.979773983E-2,1.658149064E-2
4.137919916E0,3.822215274E-2,-5.086300150E-2,1.445096545E-2
4.142977677E0,-1.077996753E-2,-4.926510528E-2,1.018991135E-2
4.148035385E0,-5.978208408E-2,-4.447142407E-2,7.526752539E-3
4.153093146E0,-1.114473715E-1,-3.541668132E-2,2.200434916E-3
4.158150958E0,-1.561884433E-1,-2.423141524E-2,-5.256409757E-3
4.163208771E0,-1.934726536E-1,-1.198088564E-2,-9.517463855E-3
4.168266635E0,-2.206368893E-1,2.932803705E-3,-1.590904593E-2
4.173324500E0,-2.339526862E-1,2.104228176E-2,-2.443115413E-2
4.178382312E0,-2.414095104E-1,3.915176913E-2,-2.975746989E-2
4.183457104E0,-2.355505675E-1,5.566334352E-2,-3.348589316E-2
4.188514916E0,-2.254305780E-1,7.110965997E-2,-3.881220892E-2
4.193572781E0,-2.067884505E-1,8.282756805E-2,-3.881220892E-2
4.198630593E0,-1.892116070E-1,8.975177258E-2,-3.508378938E-2
4.203688458E0,-1.652431786E-1,9.401282668E-2,-3.508378938E-2
4.208746271E0,-1.439379156E-1,8.602335304E-2,-3.188800067E-2
4.213788875E0,-1.210347414E-1,7.696861774E-2,-2.762694471E-2
4.218846687E0,-9.972947836E-2,6.312018633E-2,-2.123536170E-2
4.223904500E0,-7.522841543E-2,4.234755412E-2,-1.803957298E-2
4.228962364E0,-5.125997961E-2,1.891175658E-2,-1.164799090E-2
4.234020177E0,-2.995471098E-2,-3.991409205E-3,-5.256409757E-3
4.239078041E0,-4.921018146E-3,-2.476404794E-2,-2.593250712E-3
4.244129604E0,2.224320360E-2,-4.340615496E-2,1.135171507E-3
4.249187416E0,4.301583767E-2,-5.831984803E-2,4.330961965E-3
4.254245281E0,6.485373527E-2,-6.151564047E-2,4.330961965E-3
4.259303146E0,8.296322078E-2,-5.938510969E-2,4.863593727E-3
4.264360958E0,9.414847940E-2,-5.459142849E-2,6.461489014E-3
4.269418771E0,1.101274341E-1,-4.393878952E-2,6.461489014E-3
4.274490333E0,1.218453348E-1,-3.115562722E-2,7.526752539E-3
4.279548146E0,1.314327121E-1,-1.517667621E-2,9.124647826E-3
4.284605958E0,1.431505978E-1,-3.458777443E-3,9.657279588E-3
4.289663823E0,1.516727209E-1,5.595962517E-3,6.994120777E-3
4.294721635E0,1.580643058E-1,1.092227921E-2,8.059384301E-3
4.299779500E0,1.665864140E-1,1.518333517E-2,9.657279588E-3
4.304836375E0,1.676516682E-1,1.358543709E-2,1.125517488E-2
4.309894187E0,1.724453568E-1,1.038964838E-2,9.657279588E-3
4.314952000E0,1.772390455E-1,2.932803705E-3,9.657279588E-3
4.320009864E0,1.772390455E-1,-4.524040967E-3,1.072254311E-2
4.325067729E0,1.745758802E-1,-1.570930704E-2,1.285307016E-2
4.330125541E0,1.639232486E-1,-2.849246934E-2,1.817938685E-2
4.335185281E0,1.474116594E-1,-3.701457754E-2,1.817938685E-2
4.340243093E0,1.255737692E-1,-4.713458195E-2,2.137517743E-2
4.345300906E0,9.201795608E-2,-5.672195181E-2,2.350570261E-2
4.350358771E0,4.940741882E-2,-6.151564047E-2,2.350570261E-2
4.355416583E0,-6.599639892E-4,-6.045037135E-2,2.244044095E-2
4.360474448E0,-5.445577204E-2,-5.831984803E-2,1.871201769E-2
4.365515229E0,-1.066536903E-1,-5.246089771E-2,1.551622897E-2
4.370573041E0,-1.561884433E-1,-3.861247003E-2,9.657279588E-3
4.375630854E0,-1.998642385E-1,-2.476404794E-2,2.200434916E-3
4.380688718E0,-2.296916246E-1,-8.785095066E-3,-3.658514237E-3
4.385746531E0,-2.467358410E-1,1.198754273E-2,-8.984832093E-3
4.390804396E0,-2.525947988E-1,3.489070758E-2,-1.484378148E-2
4.395870593E0,-2.483337522E-1,5.619597808E-2,-2.017010003E-2
4.400928406E0,-2.344853133E-1,7.643598318E-2,-2.656168118E-2
4.405986271E0,-2.147779465E-1,9.294756502E-2,-2.815957554E-2
4.411044083E0,-1.966684610E-1,1.036002040E-1,-2.815957554E-2
4.416101948E0,-1.732326448E-1,1.073286235E-1,-2.922483906E-2
4.421159760E0,-1.481989622E-1,1.094591469E-1,-3.135536611E-2
4.426214396E0,-1.252957880E-1,1.041328311E-1,-2.975746989E-2
4.431272208E0,-1.013273671E-1,9.188230336E-2,-2.656168118E-2
4.436330021E0,-7.363051921E-2,7.164230198E-2,-2.602904849E-2
4.441387885E0,-4.966208711E-2,4.927176610E-2,-2.283325978E-2
4.446445698E0,-2.835681476E-2,2.370544150E-2,-1.590904593E-2
4.451503562E0,-1.192595810E-3,-3.458777443E-3,-1.271325443E-2
4.456575906E0,2.224320360E-2,-2.423141524E-2,-1.431114879E-2
4.461633718E0,4.088531062E-2,-4.340615496E-2,-1.005009469E-2
4.466691531E0,6.485373527E-2,-5.192826316E-2,-1.005009469E-2
4.471749396E0,8.456110954E-2,-5.299352482E-2,-6.854305044E-3
4.476807208E0,1.021379605E-1,-4.606931284E-2,-5.256409757E-3
4.481865073E0,1.229105964E-1,-3.168826178E-2,-5.789041519E-3
4.486906271E0,1.394221783E-1,-1.837246679E-2,-7.919568568E-3
4.491964083E0,1.554011405E-1,-2.393513918E-3,-8.984832093E-3
4.497021948E0,1.655211300E-1,1.038964838E-2,-1.005009469E-2
4.502079760E0,1.772390455E-1,2.370544150E-2,-1.005009469E-2
4.507137625E0,1.841632575E-1,3.276018426E-2,-1.058272738E-2
4.512195437E0,1.910874695E-1,3.435808048E-2,-1.058272738E-2
4.517264396E0,1.996095777E-1,3.808650002E-2,-8.984832093E-3
4.522322208E0,2.017401010E-1,3.489070758E-2,-7.386936806E-3
4.527380073E0,2.038706243E-1,3.489070758E-2,-8.452200331E-3
4.532437885E0,2.028053552E-1,3.116228618E-2,-7.919568568E-3
4.537495698E0,2.001421899E-1,2.370544150E-2,-8.452200331E-3
4.542553562E0,1.964137852E-1,1.571596600E-2,-8.984832093E-3
4.547616427E0,1.910874695E-1,9.324384853E-3,-8.984832093E-3
4.552674239E0,1.783042997E-1,5.063330755E-3,-9.517463855E-3
4.557732052E0,1.639232486E-1,-1.860882156E-3,-1.005009469E-2
4.562789916E0,1.458137631E-1,-6.121936254E-3,-1.058272738E-2
4.567847729E0,1.197148040E-1,-8.785095066E-3,-5.256409757E-3
4.572905593E0,9.521374106E-2,-8.252463304E-3,-6.854305044E-3
4.577961375E0,6.645163149E-2,-3.991409205E-3,-6.854305044E-3
4.583019187E0,4.088531062E-2,2.932803705E-3,-6.854305044E-3
4.588077000E0,9.460039437E-3,1.092227921E-2,-3.658514237E-3
4.593134864E0,-1.557365246E-2,2.050965093E-2,-3.125882475E-3
4.598192677E0,-3.634629026E-2,2.903176099E-2,-3.125882475E-3
4.603250541E0,-5.232524499E-2,3.861913458E-2,-3.658514237E-3
4.608311218E0,-6.777156889E-2,4.501071200E-2,-5.789041519E-3
4.613369031E0,-8.268525451E-2,5.353282019E-2,-4.723777995E-3
4.618426896E0,-9.280525893E-2,5.513071641E-2,-3.125882475E-3
4.623484708E0,-9.493578970E-2,5.726124719E-2,-4.191146232E-3
4.628542573E0,-9.759894758E-2,5.353282019E-2,-3.658514237E-3
4.633600385E0,-9.600105137E-2,4.607598111E-2,-4.627237795E-4
4.638642364E0,-9.440316260E-2,4.128229246E-2,5.396225490E-3
4.643700177E0,-8.694631606E-2,3.435808048E-2,8.059384301E-3
4.648757989E0,-7.842420042E-2,2.743386477E-2,1.018991135E-2
4.653815854E0,-6.457577646E-2,1.997702010E-2,1.604885980E-2
4.658873666E0,-5.658629909E-2,9.857015684E-3,2.297307178E-2
4.663931531E0,-4.540103301E-2,3.465435468E-3,2.457096800E-2
4.668998666E0,-3.421576321E-2,-4.524040967E-3,2.936465293E-2
4.674056479E0,-2.356312796E-2,-9.317726828E-3,3.469097242E-2
4.679114291E0,-1.504101977E-2,-1.304614916E-2,3.522360325E-2
4.684172156E0,-8.649440482E-3,-2.529668063E-2,3.522360325E-2
4.689229968E0,-1.273322268E-4,-3.381878510E-2,3.309307620E-2
4.694287781E0,6.796880625E-3,-3.914510086E-2,2.829938941E-2
4.699295385E0,1.052530296E-2,-4.606931284E-2,2.883202210E-2
4.704353198E0,1.585162058E-2,-5.139563605E-2,2.883202210E-2
4.709411062E0,2.011267468E-2,-5.352615938E-2,2.670149505E-2
4.714468823E0,2.650425583E-2,-5.246089771E-2,2.616886422E-2
4.719526687E0,2.863478474E-2,-4.926510528E-2,2.883202210E-2
4.724584500E0,2.916741557E-2,-4.234089330E-2,2.616886422E-2
4.729693823E0,3.289583325E-2,-3.488404676E-2,2.403833717E-2
4.734751687E0,4.035267979E-2,-2.582931146E-2,2.510360070E-2
4.739809500E0,4.141794518E-2,-1.997036114E-2,2.297307178E-2
4.744867364E0,3.875478730E-2,-1.464404445E-2,2.190780826E-2
4.749925177E0,3.396109864E-2,-1.091562212E-2,1.711412333E-2
4.754982989E0,3.449372947E-2,-1.038299035E-2,1.125517488E-2
4.760037729E0,2.916741557E-2,-1.038299035E-2,8.059384301E-3
4.765095489E0,1.691688411E-2,-1.251351740E-2,4.863593727E-3
4.770153354E0,2.003194997E-3,-1.464404445E-2,-9.953556582E-4
4.775211166E0,-1.983470656E-2,-1.943773031E-2,-2.060619183E-3
4.780269031E0,-4.486840218E-2,-2.849246934E-2,-3.125882475E-3
4.785326843E0,-7.096736133E-2,-3.115562722E-2,-6.854305044E-3
4.790384708E0,-1.039905325E-1,-3.328615427E-2,-5.789041519E-3
4.795446010E0,-1.370137036E-1,-3.328615427E-2,-4.723777995E-3
4.800503823E0,-1.647105515E-1,-3.115562722E-2,-6.321672350E-3
4.805561687E0,-1.918747723E-1,-2.636194229E-2,-2.593250712E-3
4.810619500E0,-2.131800354E-1,-2.156825736E-2,-1.527987421E-3
4.815677364E0,-2.264958322E-1,-1.357878093E-2,6.990798283E-5
4.820735177E0,-2.312895209E-1,-3.458777443E-3,6.025396870E-4
4.825892677E0,-2.328874022E-1,6.661225110E-3,1.135171507E-3
4.830950489E0,-2.227674127E-1,1.252017543E-2,1.135171507E-3
4.836008354E0,-2.147779465E-1,1.997702010E-2,1.135171507E-3
4.841066166E0,-2.003968805E-1,2.583596855E-2,3.265698440E-3
4.846124031E0,-1.828200221E-1,3.009702265E-2,4.330961965E-3
4.851181843E0,-1.620474011E-1,3.169492260E-2,6.461489014E-3
4.856137364E0,-1.423400193E-1,3.009702265E-2,8.059384301E-3
4.861195177E0,-1.210347414E-1,2.903176099E-2,1.018991135E-2
4.866252989E0,-1.018600017E-1,2.264017984E-2,1.391833369E-2
4.871310854E0,-8.215262741E-2,1.624859869E-2,1.764675602E-2
4.876368666E0,-6.084735319E-2,8.791752160E-3,1.977728121E-2
4.881426531E0,-4.060734808E-2,-1.328250859E-3,2.403833717E-2
4.886489760E0,-2.089997008E-2,-1.198088564E-2,3.042991646E-2
4.891547625E0,-1.725227106E-3,-2.369878255E-2,3.362570703E-2
4.896605437E0,1.904741116E-2,-3.168826178E-2,3.522360325E-2
4.901663250E0,3.129794076E-2,-3.754720837E-2,3.788676113E-2
4.906721114E0,4.301583767E-2,-4.074299708E-2,4.001728818E-2
4.911778927E0,5.739689618E-2,-4.340615496E-2,4.321307689E-2
4.916834812E0,6.751689315E-2,-4.180826619E-2,4.534360394E-2
4.921892677E0,7.763689756E-2,-3.435141966E-2,4.587623477E-2
4.926950489E0,8.828953654E-2,-2.902510203E-2,4.587623477E-2
4.932008302E0,9.681164473E-2,-2.423141524E-2,4.587623477E-2
4.937066166E0,1.079969108E-1,-1.730720326E-2,4.427834228E-2
4.942123979E0,1.191821769E-1,-8.252463304E-3,4.481097311E-2
4.947169343E0,1.314327121E-1,-2.393513918E-3,4.321307689E-2
4.952227208E0,1.420853436E-1,2.932803705E-3,4.534360394E-2
4.957285021E0,1.538032442E-1,6.128593348E-3,4.161518440E-2
4.962342885E0,1.639232486E-1,6.661225110E-3,4.427834228E-2
4.967400698E0,1.703148186E-1,6.128593348E-3,4.427834228E-2
4.972458510E0,1.703148186E-1,4.530698992E-3,4.321307689E-2
4.977496323E0,1.676516682E-1,-2.629868104E-4,4.268044606E-2
4.982554187E0,1.639232486E-1,-7.187199779E-3,4.534360394E-2
4.987612000E0,1.479442865E-1,-1.304614916E-2,4.427834228E-2
4.992669812E0,1.314327121E-1,-1.890509762E-2,4.694150388E-2
4.997727677E0,1.085295379E-1,-2.476404794E-2,4.427834228E-2
5.002785489E0,6.858216226E-2,-3.328615427E-2,4.321307689E-2
5.007870802E0,2.970004827E-2,-3.594931215E-2,4.108254984E-2
5.012928614E0,-1.504101977E-2,-3.807983920E-2,3.362570703E-2
5.017986479E0,-6.191261858E-2,-3.435141966E-2,2.670149505E-2
5.023044291E0,-1.039905325E-1,-2.795983851E-2,2.030991390E-2
5.028102156E0,-1.466010809E-1,-1.943773031E-2,1.285307016E-2
5.033159968E0,-1.806894988E-1,-7.187199779E-3,1.072254311E-2
5.038219448E0,-2.046579272E-1,1.038964838E-2,-4.627237795E-4
5.043277260E0,-2.201042473E-1,2.690123394E-2,-6.321672350E-3
5.048335125E0,-2.211695164E-1,4.873913899E-2,-1.484378148E-2
5.053392937E0,-2.174410820E-1,6.791387498E-2,-1.910483651E-2
5.058450802E0,-2.067884505E-1,8.336019516E-2,-2.123536170E-2
5.063508614E0,-1.897442490E-1,9.720861912E-2,-2.549641766E-2
5.068565541E0,-1.705695093E-1,1.062633619E-1,-2.709431201E-2
5.073623354E0,-1.503295004E-1,1.062633619E-1,-2.336589061E-2
5.078681218E0,-1.295568496E-1,1.030675694E-1,-2.123536170E-2
5.083739031E0,-1.077189520E-1,9.401282668E-2,-1.697430946E-2
5.088796896E0,-8.854420483E-2,7.537071407E-2,-1.111535914E-2
5.093854708E0,-6.564104557E-2,5.726124719E-2,-6.854305044E-3
5.098915021E0,-5.019471794E-2,3.755387291E-2,-1.527987421E-3
5.103972833E0,-2.995471098E-2,1.518333517E-2,2.200434916E-3
5.109030646E0,-5.986281671E-3,-9.317726828E-3,4.863593727E-3
5.114088510E0,1.638425328E-2,-2.529668063E-2,5.928857252E-3
5.119146323E0,3.502636030E-2,-3.754720837E-2,8.059384301E-3
5.124204187E0,5.473373830E-2,-4.393878952E-2,1.072254311E-2
5.129198302E0,7.018005103E-2,-4.553668573E-2,1.391833369E-2
5.134256114E0,8.402848244E-2,-4.234089330E-2,1.498359721E-2
5.139313979E0,9.468111396E-2,-3.328615427E-2,1.658149064E-2
5.144371791E0,1.053337455E-1,-2.210089006E-2,1.977728121E-2
5.149429656E0,1.202474460E-1,-1.038299035E-2,1.924465038E-2
5.154487468E0,1.314327121E-1,1.334908418E-3,1.764675602E-2
5.159562937E0,1.436832398E-1,1.252017543E-2,1.817938685E-2
5.164620593E0,1.554011405E-1,1.624859869E-2,1.977728121E-2
5.169678250E0,1.676516682E-1,1.784649305E-2,2.244044095E-2
5.174735958E0,1.756411493E-1,1.837912388E-2,2.403833717E-2
5.179793666E0,1.820327342E-1,1.411807165E-2,2.297307178E-2
5.184851271E0,1.852285117E-1,6.661225110E-3,2.670149505E-2
5.189929343E0,1.830979884E-1,-1.860882156E-3,2.776675858E-2
5.194987052E0,1.788369268E-1,-1.091562212E-2,2.883202210E-2
5.200044708E0,1.708474606E-1,-2.369878255E-2,3.042991646E-2
5.205102416E0,1.511400789E-1,-3.594931215E-2,3.256044537E-2
5.210160073E0,1.293021739E-1,-4.500405118E-2,3.362570703E-2
5.215217729E0,9.681164473E-2,-5.299352482E-2,3.522360325E-2
5.220304396E0,5.366847664E-2,-6.045037135E-2,3.469097242E-2
5.225362052E0,1.470563002E-3,-6.258090585E-2,3.042991646E-2
5.230419708E0,-5.445577204E-2,-6.098300591E-2,2.563623153E-2
5.235477416E0,-1.103821099E-1,-5.565669015E-2,1.871201769E-2
5.240535125E0,-1.636452824E-1,-4.606931284E-2,1.338570192E-2
5.245592729E0,-2.105168700E-1,-3.328615427E-2,6.994120777E-3
5.250644812E0,-2.451379299E-1,-1.677457057E-2,-4.627237795E-4
5.255702416E0,-2.664432228E-1,2.696449519E-4,-8.452200331E-3
5.260760125E0,-2.760306001E-1,2.264017984E-2,-1.431114879E-2
5.265817781E0,-2.733674049E-1,4.714124277E-2,-1.963746734E-2
5.270875489E0,-2.616495192E-1,6.791387498E-2,-2.389852330E-2
5.275933146E0,-2.472684681E-1,8.602335304E-2,-2.549641766E-2
5.280994031E0,-2.243653089E-1,1.004044041E-1,-2.762694471E-2
5.286051687E0,-1.982663423E-1,1.094591469E-1,-2.815957554E-2
5.291109396E0,-1.753631830E-1,1.110570505E-1,-2.602904849E-2
5.296167052E0,-1.492642164E-1,1.041328311E-1,-2.389852330E-2
5.301224760E0,-1.252957880E-1,8.921914548E-2,-1.910483651E-2
5.306282416E0,-9.866420925E-2,7.057703286E-2,-1.750694029E-2
5.311341896E0,-7.096736133E-2,4.660860822E-2,-1.590904593E-2
5.316399500E0,-4.806419089E-2,1.784649305E-2,-1.058272738E-2
5.321457208E0,-2.196523361E-2,-7.187199779E-3,-5.256409757E-3
5.326514864E0,4.666353576E-3,-3.381878510E-2,-4.191146232E-3
5.331572573E0,3.076531179E-2,-5.459142849E-2,-2.060619183E-3
5.336630229E0,5.686426535E-2,-6.684195995E-2,-2.060619183E-3
5.341685385E0,7.124531269E-2,-7.376617193E-2,-2.060619183E-3
5.346743041E0,9.042005986E-2,-7.270091027E-2,1.135171507E-3
5.351800750E0,1.063990146E-1,-6.524406374E-2,6.025396870E-4
5.356858458E0,1.213127077E-1,-5.192826316E-2,1.135171507E-3
5.361916114E0,1.346284896E-1,-3.648194298E-2,6.025396870E-4
5.366973771E0,1.474116594E-1,-2.103562467E-2,1.667803153E-3
5.372026948E0,1.585969180E-1,-4.524040967E-3,-2.593250712E-3
5.377084656E0,1.708474606E-1,7.193857804E-3,-3.125882475E-3
5.382142260E0,1.836306155E-1,1.678122953E-2,-1.527987421E-3
5.387199968E0,1.932179928E-1,1.944438741E-2,-9.953556582E-4
5.392257677E0,2.044032514E-1,2.264017984E-2,-9.953556582E-4
5.397315333E0,2.150558978E-1,2.157491446E-2,-4.627237795E-4
5.402345958E0,2.219800949E-1,1.358543709E-2,1.667803153E-3
5.407403666E0,2.326327413E-1,3.998067230E-3,3.265698440E-3
5.412461323E0,2.283716947E-1,-4.524040967E-3,5.928857252E-3
5.417518979E0,2.251759022E-1,-1.624193974E-2,5.928857252E-3
5.422576687E0,2.113274634E-1,-2.849246934E-2,9.657279588E-3
5.427634343E0,1.905548275E-1,-3.861247003E-2,1.018991135E-2
5.432728823E0,1.596621871E-1,-4.766720906E-2,1.391833369E-2
5.437786479E0,1.202474460E-1,-5.459142849E-2,1.604885980E-2
5.442844135E0,7.124531269E-2,-5.991774425E-2,1.551622897E-2
5.447901843E0,1.159056649E-2,-6.471142918E-2,1.178780664E-2
5.452959552E0,-4.327050596E-2,-6.364616752E-2,6.994120777E-3
5.458017208E0,-1.029252633E-1,-5.405879393E-2,6.025396870E-4
5.463025385E0,-1.572537124E-1,-3.967773542E-2,-6.321672350E-3
5.468083041E0,-2.003968805E-1,-2.582931146E-2,-1.377851702E-2
5.473140698E0,-2.334200442E-1,-6.654568017E-3,-2.017010003E-2
5.478198406E0,-2.536600530E-1,1.784649305E-2,-2.602904849E-2
5.483256062E0,-2.584537566E-1,4.074965790E-2,-3.295326233E-2
5.488313771E0,-2.552579641E-1,6.258755922E-2,-3.614905104E-2
5.493382364E0,-2.451379299E-1,8.495809138E-2,-3.934484348E-2
5.498440021E0,-2.280937284E-1,1.020023078E-1,-3.934484348E-2
5.503497677E0,-2.094516158E-1,1.110570505E-1,-3.614905104E-2
5.508555385E0,-1.876137108E-1,1.147854626E-1,-3.827957809E-2
5.513613041E0,-1.625800133E-1,1.105244085E-1,-3.401852399E-2
5.518670750E0,-1.386115849E-1,9.987177700E-2,-2.922483906E-2
5.523750229E0,-1.135778949E-1,8.282756805E-2,-2.336589061E-2
5.528807937E0,-8.960947394E-2,5.726124719E-2,-1.857220381E-2
5.533865593E0,-6.617367268E-2,2.530333772E-2,-1.164799090E-2
5.538923302E0,-4.113997892E-2,-6.121936254E-3,-5.789041519E-3
5.543980958E0,-1.450838894E-2,-3.435141966E-2,-2.060619183E-3
5.549038614E0,1.372109354E-2,-6.151564047E-2,1.135171507E-3
5.554083198E0,3.822215274E-2,-8.228828013E-2,6.461489014E-3
5.559140906E0,5.526636913E-2,-9.134302288E-2,8.059384301E-3
5.564198562E0,7.337584347E-2,-9.560407698E-2,8.592016064E-3
5.569256271E0,8.988742530E-2,-9.240828454E-2,1.445096545E-2
5.574313927E0,1.026705950E-1,-8.335354179E-2,1.658149064E-2
5.579371635E0,1.170516536E-1,-6.737458706E-2,1.764675602E-2
5.584453198E0,1.293021739E-1,-4.819984362E-2,1.711412333E-2
5.589510906E0,1.388895512E-1,-3.062299639E-2,1.658149064E-2
5.594568562E0,1.522053480E-1,-1.677457057E-2,1.711412333E-2
5.599626271E0,1.607274413E-1,-8.785095066E-3,1.764675602E-2
5.604683927E0,1.719127148E-1,-1.860882156E-3,1.604885980E-2
5.609741635E0,1.804348230E-1,-2.629868104E-4,1.977728121E-2
5.614810854E0,1.846958697E-1,-5.589304492E-3,2.084254473E-2
5.619868562E0,1.894895583E-1,-1.144825388E-2,2.350570261E-2
5.624926218E0,1.889569461E-1,-2.210089006E-2,2.510360070E-2
5.629983927E0,1.878916770E-1,-3.328615427E-2,2.457096800E-2
5.635041583E0,1.799021959E-1,-4.287352785E-2,2.723412588E-2
5.640099291E0,1.665864140E-1,-5.299352482E-2,2.670149505E-2
5.645159656E0,1.511400789E-1,-5.938510969E-2,2.350570261E-2
5.650217364E0,1.287695467E-1,-6.204826757E-2,2.403833717E-2
5.655275021E0,1.058663875E-1,-6.311353296E-2,2.457096800E-2
5.660332677E0,8.136532456E-2,-6.098300591E-2,2.030991390E-2
5.665390385E0,5.047268048E-2,-5.459142849E-2,1.658149064E-2
5.670448041E0,2.011267468E-2,-4.660194740E-2,1.658149064E-2
5.675502573E0,-8.116807789E-3,-3.701457754E-2,1.498359721E-2
5.680560281E0,-3.528102860E-2,-2.689457498E-2,1.391833369E-2
5.685617937E0,-5.978208408E-2,-1.144825388E-2,1.338570192E-2
5.690675646E0,-8.907683939E-2,-2.629868104E-4,1.178780664E-2
5.695733302E0,-1.141105369E-1,1.358543709E-2,9.124647826E-3
5.700791010E0,-1.338178962E-1,2.210754529E-2,4.863593727E-3
5.705825229E0,-1.439379156E-1,2.956439182E-2,1.667803153E-3
5.710882937E0,-1.556558013E-1,3.755387291E-2,-2.060619183E-3
5.715940646E0,-1.668410748E-1,4.074965790E-2,-3.125882475E-3
5.720998302E0,-1.695042253E-1,4.128229246E-2,-6.854305044E-3
5.726055958E0,-1.716347635E-1,4.554334655E-2,-6.321672350E-3
5.731113614E0,-1.705695093E-1,4.927176610E-2,-6.321672350E-3
5.736182989E0,-1.652431786E-1,4.714124277E-2,-3.125882475E-3
5.741240646E0,-1.609821320E-1,4.341281578E-2,6.025396870E-4
5.746298354E0,-1.561884433E-1,3.861913458E-2,5.928857252E-3
5.751356010E0,-1.466010809E-1,2.796649560E-2,1.285307016E-2
5.756413666E0,-1.364810616E-1,1.731386036E-2,1.817938685E-2
5.761471375E0,-1.300894767E-1,7.726490498E-3,2.457096800E-2
5.766526375E0,-1.236979067E-1,-3.458777443E-3,3.149517998E-2
5.771584083E0,-1.146431640E-1,-1.091562212E-2,3.575623408E-2
5.776641739E0,-1.077189520E-1,-1.730720326E-2,4.001728818E-2
5.781699396E0,-1.007947400E-1,-2.050299384E-2,4.108254984E-2
5.786757104E0,-9.546842426E-2,-2.156825736E-2,4.054991901E-2
5.791814760E0,-8.801157773E-2,-1.890509762E-2,3.948465735E-2
5.796888354E0,-7.522841543E-2,-1.304614916E-2,4.001728818E-2
5.801946062E0,-6.883683056E-2,-6.121936254E-3,3.948465735E-2
5.807003718E0,-6.137998775E-2,-7.956185727E-4,3.735413030E-2
5.812061427E0,-4.859682173E-2,6.661225110E-3,3.575623408E-2
5.817119083E0,-4.167260975E-2,1.358543709E-2,3.682149947E-2
5.822176791E0,-3.581365943E-2,1.518333517E-2,3.895202652E-2
5.827231531E0,-2.729155309E-2,1.678122953E-2,4.054991901E-2
5.832289187E0,-1.717154868E-2,1.465070248E-2,4.374571145E-2
5.837346896E0,-1.131259836E-2,1.145491190E-2,4.747413471E-2
5.842404552E0,-2.257859334E-3,5.063330755E-3,4.960466176E-2
5.847462260E0,5.198985338E-3,-1.328250859E-3,5.173518881E-2
5.852519916E0,1.318846177E-2,-8.785095066E-3,5.706150457E-2
5.857580802E0,1.958004385E-2,-1.783983596E-2,6.238782033E-2
5.862638458E0,1.691688411E-2,-2.795983851E-2,6.931204349E-2
5.867696166E0,1.105793566E-2,-3.381878510E-2,7.037730515E-2
5.872753823E0,3.068458289E-3,-4.021036997E-2,7.090993226E-2
5.877811531E0,-1.823681220E-2,-4.127563164E-2,7.250783592E-2
5.882869187E0,-4.966208711E-2,-3.754720837E-2,7.090993226E-2
5.887953718E0,-7.682631165E-2,-3.648194298E-2,6.718152016E-2
5.893011427E0,-1.077189520E-1,-3.222088888E-2,6.611625105E-2
5.898069083E0,-1.423400193E-1,-2.529668063E-2,6.292045116E-2
5.903126739E0,-1.711021215E-1,-1.570930704E-2,6.132255867E-2
5.908184448E0,-1.945379376E-1,-5.589304492E-3,5.919203162E-2
5.913242104E0,-2.089189887E-1,3.998067230E-3,5.546360835E-2
5.918296323E0,-2.158432007E-1,1.731386036E-2,5.439834669E-2
5.923353979E0,-2.169084698E-1,3.009702265E-2,5.493097752E-2
5.928411687E0,-2.126473933E-1,4.181492701E-2,5.173518881E-2
5.933469396E0,-2.030600309E-1,5.459808186E-2,5.120255798E-2
5.938527052E0,-1.908095032E-1,6.098965928E-2,5.493097752E-2
5.943584760E0,-1.764284521E-1,6.525071710E-2,5.759413540E-2
5.948611739E0,-1.620474011E-1,6.738124788E-2,6.345308572E-2
5.953669448E0,-1.481989622E-1,6.258755922E-2,6.451835483E-2
5.958727156E0,-1.306221187E-1,5.459808186E-2,6.611625105E-2
5.963784812E0,-1.119800061E-1,4.767386988E-2,6.877940893E-2
5.968842468E0,-9.493578970E-2,3.435808048E-2,6.877940893E-2
5.973900125E0,-7.576104999E-2,1.784649305E-2,6.824678183E-2
5.978968666E0,-5.445577204E-2,1.334908418E-3,6.611625105E-2
5.984026271E0,-3.474839777E-2,-1.038299035E-2,6.771414727E-2
5.989083979E0,-1.450838894E-2,-2.263352089E-2,6.398572773E-2
5.994141635E0,2.535826527E-3,-3.541668132E-2,6.078992411E-2
5.999199343E0,1.851478033E-2,-4.234089330E-2,5.812676623E-2
6.004257000E0,3.396109864E-2,-4.926510528E-2,5.652887374E-2
6.009318093E0,5.207058042E-2,-4.873247072E-2,5.865940079E-2
6.014375750E0,6.432110816E-2,-4.180826619E-2,5.652887374E-2
6.019433458E0,7.870216668E-2,-3.754720837E-2,5.280045047E-2
6.024491114E0,8.935479820E-2,-3.009036556E-2,5.173518881E-2
6.029548823E0,9.894216806E-2,-2.423141524E-2,5.120255798E-2
6.034606479E0,1.159863919E-1,-1.837246679E-2,5.013729259E-2
6.039663093E0,1.282369196E-1,-7.187199779E-3,5.173518881E-2
6.044720750E0,1.431505978E-1,-2.926145680E-3,4.694150388E-2
6.049778458E0,1.575316638E-1,-1.860882156E-3,4.694150388E-2
6.054836114E0,1.783042997E-1,-1.860882156E-3,4.694150388E-2
6.059893823E0,1.937506199E-1,-1.860882156E-3,4.694150388E-2
6.064951479E0,2.075990438E-1,-4.524040967E-3,4.640886933E-2
6.070013250E0,2.225127369E-1,-7.719831541E-3,4.747413471E-2
6.075070854E0,2.321001142E-1,-1.038299035E-2,4.853939638E-2
6.080128562E0,2.352958918E-1,-1.357878093E-2,5.066992342E-2
6.085186218E0,2.368938029E-1,-2.316615172E-2,5.333308131E-2
6.090243927E0,2.289043069E-1,-3.435141966E-2,5.280045047E-2
6.095301635E0,2.113274634E-1,-3.594931215E-2,5.280045047E-2
6.100347625E0,1.857611388E-1,-4.180826619E-2,5.439834669E-2
6.105405281E0,1.500748098E-1,-4.713458195E-2,5.173518881E-2
6.110462937E0,1.063990146E-1,-4.926510528E-2,4.694150388E-2
6.115520646E0,5.313584208E-2,-4.979773983E-2,3.895202652E-2
6.120578354E0,-7.584177423E-3,-4.553668573E-2,2.936465293E-2
6.125636010E0,-7.043473423E-2,-4.074299708E-2,1.924465038E-2
6.130692104E0,-1.279589534E-1,-3.115562722E-2,6.994120777E-3
6.135749760E0,-1.796242446E-1,-2.050299384E-2,-4.723777995E-3
6.140807416E0,-2.238326669E-1,-8.252463304E-3,-1.431114879E-2
6.145865125E0,-2.547253370E-1,6.661225110E-3,-2.496378496E-2
6.150922781E0,-2.765632272E-1,2.210754529E-2,-3.135536611E-2
6.155980437E0,-2.856179774E-1,3.968439624E-2,-3.668168560E-2
6.161055333E0,-2.824221551E-1,5.885913596E-2,-4.520379379E-2
6.166113250E0,-2.712368965E-1,7.909914106E-2,-4.893221706E-2
6.171171271E0,-2.573884726E-1,9.507808834E-2,-4.839958251E-2
6.176229239E0,-2.328874022E-1,1.094591469E-1,-5.372590199E-2
6.181287156E0,-2.051905692E-1,1.158507317E-1,-5.159537494E-2
6.186345125E0,-1.806894988E-1,1.201117784E-1,-4.893221706E-2
6.191386010E0,-1.545905471E-1,1.153180972E-1,-4.733432084E-2
6.196443979E0,-1.242305338E-1,1.041328311E-1,-4.467116296E-2
6.201501948E0,-9.387052059E-2,8.921914548E-2,-3.934484348E-2
6.206559916E0,-6.351051480E-2,6.684861332E-2,-3.774694726E-2
6.211617833E0,-3.101997264E-2,3.755387291E-2,-3.614905104E-2
6.216675802E0,2.535826527E-3,7.193857804E-3,-2.869220637E-2
6.221724343E0,3.555899113E-2,-2.369878255E-2,-2.656168118E-2
6.226782260E0,6.858216226E-2,-5.033036694E-2,-2.656168118E-2
6.231840229E0,9.521374106E-2,-7.536406815E-2,-2.656168118E-2
6.236898198E0,1.197148040E-1,-9.134302288E-2,-2.549641766E-2
6.241956218E0,1.404874474E-1,-9.560407698E-2,-2.070273086E-2
6.247014187E0,1.569990367E-1,-9.613670409E-2,-2.017010003E-2
6.252096010E0,1.745758802E-1,-9.081038833E-2,-1.857220381E-2
6.257153979E0,1.857611388E-1,-7.802722603E-2,-1.963746734E-2
6.262211896E0,1.996095777E-1,-6.471142918E-2,-2.230062708E-2
6.267269916E0,2.155885249E-1,-4.819984362E-2,-2.230062708E-2
6.272327885E0,2.289043069E-1,-3.275352344E-2,-2.389852330E-2
6.277385854E0,2.432853729E-1,-2.369878255E-2,-2.602904849E-2
6.282411114E0,2.581990659E-1,-1.837246679E-2,-2.815957554E-2
6.287469083E0,2.704496086E-1,-1.411141269E-2,-3.082273528E-2
6.292527052E0,2.795043588E-1,-1.624193974E-2,-3.135536611E-2
6.297585021E0,2.896243334E-1,-2.263352089E-2,-3.029010445E-2
6.302642989E0,2.965485454E-1,-3.168826178E-2,-3.135536611E-2
6.307700958E0,2.997443378E-1,-4.287352785E-2,-2.975746989E-2
6.312785958E0,2.997443378E-1,-5.725458637E-2,-2.869220637E-2
6.317843927E0,2.928201258E-1,-7.642932981E-2,-2.922483906E-2
6.322901843E0,2.773737907E-1,-9.027776122E-2,-2.975746989E-2
6.327959864E0,2.560685277E-1,-1.003977656E-1,-3.082273528E-2
6.333017833E0,2.294369489E-1,-1.105177626E-1,-3.135536611E-2
6.338075802E0,1.894895583E-1,-1.206377670E-1,-3.242063150E-2
6.343212156E0,1.394221783E-1,-1.248988211E-1,-3.455115855E-2
6.348270125E0,8.349584788E-2,-1.259640753E-1,-3.455115855E-2
6.353328093E0,2.171057090E-2,-1.233009323E-1,-3.721431643E-2
6.358386062E0,-4.859682173E-2,-1.169093400E-1,-4.147537053E-2
6.363444031E0,-1.215673685E-1,-1.003977656E-1,-4.573642462E-2
6.368502000E0,-1.865484416E-1,-8.335354179E-2,-5.479116365E-2
6.373454708E0,-2.478010952E-1,-6.258090585E-2,-6.011747941E-2
6.378512625E0,-2.941400707E-1,-3.861247003E-2,-6.437852234E-2
6.383570646E0,-3.260979652E-1,-1.570930704E-2,-7.236800343E-2
6.388628614E0,-3.431422114E-1,7.193857804E-3,-7.662905753E-2
6.393686583E0,-3.468706310E-1,2.956439182E-2,-8.195537329E-2
6.398744552E0,-3.367505968E-1,5.513071641E-2,-8.515116572E-2
6.403806114E0,-3.197063804E-1,7.590334862E-2,-8.461853862E-2
6.408864083E0,-2.936074436E-1,9.188230336E-2,-8.515116572E-2
6.413922104E0,-2.632474303E-1,1.046654657E-1,-8.142274618E-2
6.418980021E0,-2.328874022E-1,1.115896776E-1,-7.449853420E-2
6.424037989E0,-2.019947618E-1,1.158507317E-1,-6.757431477E-2
6.429095958E0,-1.732326448E-1,1.131875739E-1,-6.118274480E-2
6.434186635E0,-1.386115849E-1,1.041328311E-1,-5.585642532E-2
6.439244604E0,-1.029252633E-1,8.762124926E-2,-4.839958251E-2
6.444302573E0,-6.883683056E-2,6.897913665E-2,-4.094273597E-2
6.449360541E0,-3.155260533E-2,4.341281578E-2,-3.242063150E-2
6.454418510E0,6.264248863E-3,1.731386036E-2,-2.869220637E-2
6.459476479E0,4.141794518E-2,-9.317726828E-3,-2.496378496E-2
6.464515541E0,7.657163590E-2,-3.168826178E-2,-2.176799625E-2
6.469573510E0,1.074642763E-1,-4.873247072E-2,-1.857220381E-2
6.474631479E0,1.356937587E-1,-5.725458637E-2,-1.537641417E-2
6.479689448E0,1.596621871E-1,-6.151564047E-2,-1.377851702E-2
6.484747416E0,1.809674501E-1,-5.778721347E-2,-8.452200331E-3
6.489805385E0,1.985443085E-1,-4.766720906E-2,-6.854305044E-3
6.494856635E0,2.113274634E-1,-3.328615427E-2,-8.452200331E-3
6.499914656E0,2.294369489E-1,-1.517667621E-2,-5.789041519E-3
6.504972625E0,2.395569533E-1,3.998067230E-3,-4.191146232E-3
6.510030541E0,2.507422268E-1,1.944438741E-2,-5.789041519E-3
6.515088562E0,2.656559050E-1,3.542334214E-2,-4.723777995E-3
6.520146531E0,2.741780281E-1,4.607598111E-2,-3.658514237E-3
6.525257364E0,2.832327485E-1,5.140229687E-2,-1.527987421E-3
6.530315333E0,2.938853800E-1,5.513071641E-2,6.990798283E-5
6.535373302E0,2.992117107E-1,5.406545475E-2,1.135171507E-3
6.540431271E0,2.986790836E-1,4.607598111E-2,2.733066678E-3
6.545489239E0,2.922874987E-1,3.382544592E-2,8.059384301E-3
6.550547208E0,2.784390748E-1,1.731386036E-2,9.124647826E-3
6.555607052E0,2.539380193E-1,-1.860882156E-3,1.658149064E-2
6.560665021E0,2.177190483E-1,-1.890509762E-2,2.137517743E-2
6.565722989E0,1.724453568E-1,-3.328615427E-2,2.403833717E-2
6.570780958E0,1.122579649E-1,-4.660194740E-2,2.616886422E-2
6.575838927E0,4.195057601E-2,-5.938510969E-2,2.510360070E-2
6.580896896E0,-3.900944814E-2,-6.630932540E-2,2.457096800E-2
6.585908562E0,-1.162410602E-1,-6.258090585E-2,2.084254473E-2
6.590966531E0,-1.913421303E-1,-5.086300150E-2,1.178780664E-2
6.596024500E0,-2.579210997E-1,-3.861247003E-2,5.396225490E-3
6.601082468E0,-3.117169142E-1,-2.050299384E-2,1.135171507E-3
6.606140437E0,-3.537948132E-1,1.334908418E-3,-4.723777995E-3
6.611198406E0,-3.745674491E-1,2.903176099E-2,-1.005009469E-2
6.616232208E0,-3.798937798E-1,6.152229384E-2,-1.803957298E-2
6.621290125E0,-3.729695678E-1,9.188230336E-2,-2.283325978E-2
6.626348093E0,-3.569906056E-1,1.185138822E-1,-2.815957554E-2
6.631406062E0,-3.303590119E-1,1.419496983E-1,-2.815957554E-2
6.636464083E0,-3.005316257E-1,1.595265418E-1,-2.496378496E-2
6.641522000E0,-2.696389854E-1,1.685812920E-1,-2.230062708E-2
6.646626531E0,-2.355505675E-1,1.664507538E-1,-2.017010003E-2
6.651684500E0,-1.998642385E-1,1.563307643E-1,-1.857220381E-2
6.656742468E0,-1.631126553E-1,1.376886517E-1,-1.164799090E-2
6.661800437E0,-1.279589534E-1,1.115896776E-1,-2.593250712E-3
6.666858406E0,-9.120737016E-2,7.963176817E-2,6.025396870E-4
6.671916375E0,-5.552103370E-2,3.968439624E-2,8.059384301E-3
6.676924291E0,-1.717154868E-2,-2.629868104E-4,9.657279588E-3
6.681982312E0,2.224320360E-2,-3.541668132E-2,1.445096545E-2
6.687040229E0,5.686426535E-2,-6.577669084E-2,1.658149064E-2
6.692098250E0,8.882216364E-2,-8.921249956E-2,1.817938685E-2
6.697156218E0,1.175842807E-1,-9.986513108E-2,1.977728121E-2
6.702214187E0,1.426179856E-1,-1.041261852E-1,2.137517743E-2
6.707291218E0,1.644558758E-1,-1.030609161E-1,2.244044095E-2
6.712349187E0,1.830979884E-1,-8.921249956E-2,2.137517743E-2
6.717407156E0,2.001421899E-1,-7.270091027E-2,2.137517743E-2
6.722465125E0,2.145232558E-1,-5.352615938E-2,1.711412333E-2
6.727523093E0,2.305022180E-1,-3.861247003E-2,1.338570192E-2
6.732581062E0,2.448832691E-1,-2.210089006E-2,1.125517488E-2
6.737630489E0,2.576664388E-1,-8.785095066E-3,5.928857252E-3
6.742688510E0,2.731127441E-1,-2.629868104E-4,2.733066678E-3
6.747746479E0,2.880264521E-1,6.661225110E-3,-9.953556582E-4
6.752804448E0,2.965485454E-1,9.857015684E-3,-2.060619183E-3
6.757862416E0,3.050706685E-1,8.259121329E-3,-5.256409757E-3
6.762920385E0,3.045380414E-1,2.400171012E-3,-6.321672350E-3
6.767985906E0,2.981464267E-1,-6.654568017E-3,-3.125882475E-3
6.773043875E0,2.864285409E-1,-2.316615172E-2,-9.953556582E-4
6.778101843E0,2.613948584E-1,-3.967773542E-2,3.265698440E-3
6.783159812E0,2.214474827E-1,-5.565669015E-2,6.461489014E-3
6.788217781E0,1.703148186E-1,-6.737458706E-2,9.124647826E-3
6.793275750E0,1.048011184E-1,-7.962512225E-2,1.391833369E-2
6.798329760E0,2.490636148E-2,-9.134302288E-2,1.125517488E-2
6.803387729E0,-6.031472608E-2,-9.453881532E-2,1.018991135E-2
6.808445698E0,-1.455358118E-1,-8.867985755E-2,6.994120777E-3
6.813503666E0,-2.270284593E-1,-7.749459147E-2,-2.060619183E-3
6.818561635E0,-2.973358631E-1,-5.831984803E-2,-9.517463855E-3
6.823619604E0,-3.484684825E-1,-3.594931215E-2,-1.750694029E-2
6.828681739E0,-3.846874535E-1,-8.252463304E-3,-2.762694471E-2
6.833739708E0,-4.038622081E-1,2.317281067E-2,-3.774694726E-2
6.838797677E0,-4.081232548E-1,5.832650885E-2,-4.413852841E-2
6.843855646E0,-3.964053392E-1,9.401282668E-2,-5.159537494E-2
6.848913614E0,-3.745674491E-1,1.233075857E-1,-5.372590199E-2
6.853971583E0,-3.479358554E-1,1.488739103E-1,-5.532379448E-2
6.859000177E0,-3.149127066E-1,1.680486500E-1,-5.319326743E-2
6.864058146E0,-2.818895280E-1,1.776360273E-1,-4.946484789E-2
6.869116062E0,-2.451379299E-1,1.781686693E-1,-4.626905546E-2
6.874174083E0,-2.099842578E-1,1.648528725E-1,-3.721431643E-2
6.879232000E0,-1.732326448E-1,1.440802217E-1,-2.975746989E-2
6.884289968E0,-1.354158074E-1,1.131875739E-1,-2.230062708E-2
6.889365698E0,-9.759894758E-2,7.430545241E-2,-1.377851702E-2
6.894423666E0,-5.924945697E-2,3.329281136E-2,-7.386936806E-3
6.899481635E0,-1.663891412E-2,-6.654568017E-3,6.025396870E-4
6.904539656E0,2.597162500E-2,-4.553668573E-2,3.798330203E-3
6.909597573E0,6.538636982E-2,-7.802722603E-2,6.461489014E-3
6.914655541E0,1.010726988E-1,-9.933249652E-2,1.125517488E-2
6.919710646E0,1.314327121E-1,-1.121156588E-1,1.445096545E-2
6.924768666E0,1.564663947E-1,-1.153114513E-1,1.871201769E-2
6.929826583E0,1.804348230E-1,-1.073219702E-1,2.030991390E-2
6.934884604E0,2.028053552E-1,-9.453881532E-2,2.137517743E-2
6.939942521E0,2.203822136E-1,-7.589670271E-2,2.137517743E-2
6.945000541E0,2.363611609E-1,-5.299352482E-2,2.137517743E-2
6.950091948E0,2.491443157E-1,-3.435141966E-2,1.817938685E-2
6.955149864E0,2.661885619E-1,-1.890509762E-2,1.764675602E-2
6.960207833E0,2.816348672E-1,-5.056672730E-3,1.498359721E-2
6.965265802E0,2.960159183E-1,5.595962517E-3,1.018991135E-2
6.970323771E0,3.072011769E-1,1.092227921E-2,1.285307016E-2
6.975381739E0,3.178538382E-1,1.145491190E-2,1.125517488E-2
6.980416896E0,3.253106475E-1,7.726490498E-3,1.125517488E-2
6.985474864E0,3.279738426E-1,-1.328250859E-3,1.285307016E-2
6.990532833E0,3.237127960E-1,-1.198088564E-2,1.551622897E-2
6.995590802E0,3.087990880E-1,-2.955773287E-2,1.924465038E-2
7.000648771E0,2.848306298E-1,-4.713458195E-2,2.403833717E-2
7.005706739E0,2.422201037E-1,-6.258090585E-2,2.616886422E-2
7.010762156E0,1.905548275E-1,-7.909248769E-2,2.936465293E-2
7.015820125E0,1.207800731E-1,-9.240828454E-2,3.096254729E-2
7.020878093E0,3.662425652E-2,-1.009303927E-1,3.202781081E-2
7.025936062E0,-5.605366454E-2,-1.051914468E-1,2.563623153E-2
7.030994031E0,-1.481989622E-1,-1.014630273E-1,2.084254473E-2
7.036052000E0,-2.403442562E-1,-8.974512666E-2,9.657279588E-3
7.041109864E0,-3.175758421E-1,-7.163564861E-2,6.990798283E-5
7.046167833E0,-3.825569451E-1,-5.192826316E-2,-1.111535914E-2
7.051225802E0,-4.304938018E-1,-2.582931146E-2,-1.803957298E-2
7.056283771E0,-4.523317218E-1,6.661225110E-3,-2.656168118E-2
7.061341739E0,-4.608538151E-1,4.394545034E-2,-3.401852399E-2
7.066399708E0,-4.491358995E-1,8.229493350E-2,-4.094273597E-2
7.071455229E0,-4.235695899E-1,1.137202010E-1,-4.413852841E-2
7.076513198E0,-3.985359073E-1,1.419496983E-1,-4.467116296E-2
7.081571166E0,-3.644474745E-1,1.627223492E-1,-4.360589385E-2
7.086629135E0,-3.255653679E-1,1.765707731E-1,-4.041010514E-2
7.091687104E0,-2.834874392E-1,1.776360273E-1,-3.401852399E-2
7.096745073E0,-2.462032139E-1,1.696465611E-1,-2.656168118E-2
7.101833562E0,-2.062558234E-1,1.526023299E-1,-2.017010003E-2
7.106891479E0,-1.641779244E-1,1.211770475E-1,-1.111535914E-2
7.111949448E0,-1.210347414E-1,8.602335304E-2,-5.256409757E-3
7.117007468E0,-7.469578832E-2,4.234755412E-2,2.733066678E-3
7.122065437E0,-3.208523989E-2,-2.393513918E-3,1.018991135E-2
7.127123406E0,1.744951680E-2,-4.340615496E-2,1.178780664E-2
7.132170802E0,6.325584650E-2,-7.909248769E-2,1.445096545E-2
7.137228771E0,1.037358567E-1,-1.051914468E-1,1.817938685E-2
7.142286739E0,1.394221783E-1,-1.217030287E-1,2.030991390E-2
7.147344708E0,1.703148186E-1,-1.291598678E-1,2.297307178E-2
7.152402677E0,1.969464123E-1,-1.243661940E-1,2.563623153E-2
7.157460646E0,2.225127369E-1,-1.083872318E-1,2.403833717E-2
7.162478875E0,2.411548495E-1,-8.761459589E-2,2.670149505E-2
7.167536635E0,2.619274855E-1,-6.577669084E-2,2.616886422E-2
7.172594343E0,2.779064476E-1,-4.287352785E-2,2.563623153E-2
7.177652156E0,2.944180071E-1,-2.316615172E-2,2.190780826E-2
7.182709864E0,3.072011769E-1,-4.524040967E-3,2.190780826E-2
7.187767625E0,3.226475120E-1,8.259121329E-3,1.817938685E-2
7.192837521E0,3.402243555E-1,1.731386036E-2,1.711412333E-2
7.197895333E0,3.524748981E-1,2.210754529E-2,1.871201769E-2
7.202953041E0,3.604643643E-1,2.317281067E-2,1.658149064E-2
7.208010802E0,3.663233221E-1,2.050965093E-2,1.764675602E-2
7.213068562E0,3.652580380E-1,9.857015684E-3,2.030991390E-2
7.218126271E0,3.530075252E-1,-3.458777443E-3,2.137517743E-2
7.223269239E0,3.348980248E-1,-2.423141524E-2,2.723412588E-2
7.228327000E0,2.997443378E-1,-3.754720837E-2,2.883202210E-2
7.233384760E0,2.491443157E-1,-5.618931726E-2,3.309307620E-2
7.238442468E0,1.862937808E-1,-7.110301405E-2,3.415834159E-2
7.243500229E0,1.058663875E-1,-8.388617635E-2,3.682149947E-2
7.248558041E0,1.585162058E-2,-9.134302288E-2,3.362570703E-2
7.253519396E0,-8.002210408E-2,-8.974512666E-2,2.936465293E-2
7.258577156E0,-1.711021215E-1,-8.228828013E-2,2.084254473E-2
7.263634864E0,-2.568558455E-1,-6.471142918E-2,6.994120777E-3
7.268692677E0,-3.346200585E-1,-4.021036997E-2,-4.723777995E-3
7.273750385E0,-3.942748308E-1,-1.783983596E-2,-1.431114879E-2
7.278808146E0,-4.326243103E-1,1.145491190E-2,-2.230062708E-2
7.283882260E0,-4.507338107E-1,4.607598111E-2,-3.348589316E-2
7.288940021E0,-4.517990649E-1,8.495809138E-2,-4.094273597E-2
7.293997729E0,-4.411464334E-1,1.233075857E-1,-4.467116296E-2
7.299055541E0,-4.177106321E-1,1.557981223E-1,-4.893221706E-2
7.304113250E0,-3.857527375E-1,1.845602393E-1,-4.839958251E-2
7.309171062E0,-3.527295589E-1,2.005392015E-1,-4.360589385E-2
7.314223614E0,-3.143800795E-1,2.079960406E-1,-4.254063219E-2
7.319281375E0,-2.781611085E-1,2.053328753E-1,-3.561642021E-2
7.324339135E0,-2.366158366E-1,1.904191822E-1,-2.602904849E-2
7.329396896E0,-1.966684610E-1,1.653854996E-1,-1.963746734E-2
7.334454604E0,-1.545905471E-1,1.318296939E-1,-1.111535914E-2
7.339512416E0,-1.114473715E-1,9.081703424E-2,-3.658514237E-3
7.344576166E0,-6.617367268E-2,4.554334655E-2,2.733066678E-3
7.349633927E0,-1.983470656E-2,-1.328250859E-3,7.526752539E-3
7.354691687E0,2.916741557E-2,-4.127563164E-2,9.124647826E-3
7.359749448E0,7.444110513E-2,-7.483144104E-2,1.125517488E-2
7.364807156E0,1.175842807E-1,-9.986513108E-2,1.391833369E-2
7.369864968E0,1.522053480E-1,-1.110503972E-1,1.764675602E-2
7.374923510E0,1.830979884E-1,-1.115830243E-1,2.137517743E-2
7.379981271E0,2.097295672E-1,-1.062567085E-1,2.297307178E-2
7.385038979E0,2.347632796E-1,-9.240828454E-2,2.403833717E-2
7.390096739E0,2.534053922E-1,-7.536406815E-2,2.403833717E-2
7.395154500E0,2.709822357E-1,-5.459142849E-2,2.297307178E-2
7.400212260E0,2.885590792E-1,-3.435141966E-2,2.297307178E-2
7.405283771E0,3.029401302E-1,-1.943773031E-2,2.030991390E-2
7.410341531E0,3.135927618E-1,-5.056672730E-3,1.711412333E-2
7.415399239E0,3.311696053E-1,5.063330755E-3,1.445096545E-2
7.420457052E0,3.460832834E-1,1.038964838E-2,1.285307016E-2
7.425514812E0,3.551380336E-1,1.305280626E-2,1.338570192E-2
7.430572521E0,3.620622754E-1,1.252017543E-2,1.551622897E-2
7.435601843E0,3.604643643E-1,6.661225110E-3,1.178780664E-2
7.440659552E0,3.508769870E-1,-7.187199779E-3,1.391833369E-2
7.445717312E0,3.301043510E-1,-2.316615172E-2,1.817938685E-2
7.450775073E0,2.928201258E-1,-4.234089330E-2,2.510360070E-2
7.455832781E0,2.454159111E-1,-6.045037135E-2,2.723412588E-2
7.460890541E0,1.815000921E-1,-7.589670271E-2,2.776675858E-2
7.465975750E0,1.016053334E-1,-9.081038833E-2,2.723412588E-2
7.471033458E0,6.796880625E-3,-1.014630273E-1,2.350570261E-2
7.476091218E0,-8.907683939E-2,-1.035935506E-1,1.551622897E-2
7.481148927E0,-1.860158294E-1,-9.666933864E-2,4.863593727E-3
7.486206739E0,-2.754979432E-1,-7.909248769E-2,-6.321672350E-3
7.491264448E0,-3.500663936E-1,-5.938510969E-2,-1.910483651E-2
7.496308146E0,-4.113190472E-1,-3.488404676E-2,-2.922483906E-2
7.501365906E0,-4.502011538E-1,-2.393513918E-3,-3.827957809E-2
7.506423666E0,-4.629843235E-1,3.648860380E-2,-4.946484789E-2
7.511481427E0,-4.597885311E-1,7.750124484E-2,-5.905221775E-2
7.516539135E0,-4.395485520E-1,1.163833588E-1,-6.278063357E-2
7.521596948E0,-4.097211361E-1,1.520697176E-1,-6.810694933E-2
7.526656948E0,-3.708390296E-1,1.802991927E-1,-6.597642601E-2
7.531714708E0,-3.362179697E-1,1.989412904E-1,-6.331326067E-2
7.536772416E0,-3.010642827E-1,2.069307864E-1,-5.532379448E-2
7.541830177E0,-2.611168921E-1,2.016044557E-1,-4.733432084E-2
7.546887937E0,-2.227674127E-1,1.888213009E-1,-4.147537053E-2
7.551945698E0,-1.817547679E-1,1.616570801E-1,-3.029010445E-2
7.557004656E0,-1.396768540E-1,1.249054745E-1,-2.283325978E-2
7.562062416E0,-9.653368592E-2,7.963176817E-2,-1.644167677E-2
7.567120125E0,-5.019471794E-2,3.116228618E-2,-9.517463855E-3
7.572177885E0,-1.192595810E-3,-1.890509762E-2,-4.723777995E-3
7.577235646E0,4.834215716E-2,-6.471142918E-2,-2.060619183E-3
7.582293406E0,9.468111396E-2,-9.879986197E-2,6.990798283E-5
7.587342573E0,1.330305934E-1,-1.206377670E-1,1.135171507E-3
7.592400333E0,1.719127148E-1,-1.328882873E-1,6.461489014E-3
7.597458093E0,2.022727281E-1,-1.339535415E-1,1.018991135E-2
7.602515854E0,2.278390527E-1,-1.243661940E-1,1.232043747E-2
7.607573614E0,2.544706464E-1,-1.041261852E-1,1.498359721E-2
7.612631323E0,2.747106552E-1,-8.335354179E-2,1.498359721E-2
7.617716375E0,2.928201258E-1,-6.204826757E-2,1.764675602E-2
7.622774135E0,3.082664609E-1,-4.234089330E-2,2.084254473E-2
7.627831843E0,3.231801391E-1,-2.423141524E-2,2.030991390E-2
7.632889656E0,3.354306817E-1,-1.251351740E-2,1.871201769E-2
7.637947416E0,3.487464786E-1,-2.926145680E-3,1.924465038E-2
7.643005125E0,3.599317074E-1,2.400171012E-3,2.190780826E-2
7.648042885E0,3.668559492E-1,2.932803705E-3,2.137517743E-2
7.653100593E0,3.657906651E-1,2.932803705E-3,2.350570261E-2
7.658158354E0,3.567359447E-1,-6.121936254E-3,2.883202210E-2
7.663216114E0,3.354306817E-1,-1.943773031E-2,3.309307620E-2
7.668273823E0,3.082664609E-1,-3.275352344E-2,3.788676113E-2
7.673331635E0,2.651232779E-1,-4.660194740E-2,4.161518440E-2
7.678377104E0,2.075990438E-1,-6.151564047E-2,4.481097311E-2
7.683434864E0,1.356937587E-1,-7.642932981E-2,4.640886933E-2
7.688492625E0,4.887478799E-2,-8.974512666E-2,4.960466176E-2
7.693550385E0,-4.859682173E-2,-1.019956544E-1,4.907203093E-2
7.698608146E0,-1.481989622E-1,-1.030609161E-1,4.214781523E-2
7.703665854E0,-2.435400486E-1,-9.240828454E-2,3.469097242E-2
7.708738146E0,-3.260979652E-1,-7.376617193E-2,2.190780826E-2
7.713795906E0,-3.916116655E-1,-5.352615938E-2,1.285307016E-2
7.718853614E0,-4.422116876E-1,-2.529668063E-2,7.526752539E-3
7.723911375E0,-4.715064168E-1,1.092227921E-2,1.667803153E-3
7.728969187E0,-4.789632857E-1,5.193492398E-2,-7.919568568E-3
7.734026896E0,-4.715064168E-1,9.614335746E-2,-1.218062267E-2
7.739060229E0,-4.512664378E-1,1.344928592E-1,-1.271325443E-2
7.744117989E0,-4.214390516E-1,1.728423387E-1,-1.111535914E-2
7.749175698E0,-3.889485300E-1,2.005392015E-1,-8.452200331E-3
7.754233458E0,-3.516643047E-1,2.213118374E-1,-3.658514237E-3
7.759291218E0,-3.138474226E-1,2.266381532E-1,1.667803153E-3
7.764348927E0,-2.723021805E-1,2.191812992E-1,1.072254311E-2
7.769431010E0,-2.334200442E-1,2.026697248E-1,2.030991390E-2
7.774488771E0,-1.934726536E-1,1.739076078E-1,2.670149505E-2
7.779546479E0,-1.519273818E-1,1.328949630E-1,3.415834159E-2
7.784604239E0,-1.029252633E-1,8.549071848E-2,4.161518440E-2
7.789662000E0,-5.658629909E-2,3.542334214E-2,4.747413471E-2
7.794719760E0,-5.453648977E-3,-1.411141269E-2,4.907203093E-2
7.799776739E0,4.408110306E-2,-5.885248259E-2,4.907203093E-2
7.804834448E0,8.935479820E-2,-9.453881532E-2,4.960466176E-2
7.809892156E0,1.293021739E-1,-1.163767129E-1,5.120255798E-2
7.814949916E0,1.692495495E-1,-1.238335595E-1,5.280045047E-2
7.820007729E0,1.996095777E-1,-1.238335595E-1,5.386571586E-2
7.825065437E0,2.241106182E-1,-1.105177626E-1,5.652887374E-2
7.830124812E0,2.464811653E-1,-8.974512666E-2,5.546360835E-2
7.835182573E0,2.629927397E-1,-6.790722162E-2,5.173518881E-2
7.840240333E0,2.816348672E-1,-4.021036997E-2,4.640886933E-2
7.845298093E0,3.013422489E-1,-1.570930704E-2,4.108254984E-2
7.850355802E0,3.173211813E-1,2.932803705E-3,3.735413030E-2
7.855413614E0,3.348980248E-1,1.784649305E-2,3.309307620E-2
7.860447833E0,3.503443301E-1,2.690123394E-2,2.883202210E-2
7.865505593E0,3.620622754E-1,2.903176099E-2,2.829938941E-2
7.870563302E0,3.668559492E-1,2.690123394E-2,2.723412588E-2
7.875621062E0,3.668559492E-1,1.891175658E-2,2.723412588E-2
7.880678823E0,3.551380336E-1,3.998067230E-3,2.829938941E-2
7.885736583E0,3.311696053E-1,-1.730720326E-2,3.042991646E-2
7.890818406E0,2.992117107E-1,-3.648194298E-2,3.202781081E-2
7.895876166E0,2.528727353E-1,-6.098300591E-2,3.575623408E-2
7.900933927E0,1.937506199E-1,-7.802722603E-2,3.628886491E-2
7.905991635E0,1.218453348E-1,-9.027776122E-2,3.256044537E-2
7.911049396E0,3.662425652E-2,-9.879986197E-2,2.776675858E-2
7.916107156E0,-5.285787582E-2,-1.030609161E-1,2.084254473E-2
7.921166687E0,-1.391442269E-1,-9.773460031E-2,1.232043747E-2
7.926224448E0,-2.195716202E-1,-7.909248769E-2,6.990798283E-5
7.931282156E0,-2.866832018E-1,-5.778721347E-2,-1.005009469E-2
7.936339916E0,-3.399463892E-1,-3.381878510E-2,-2.017010003E-2
7.941397625E0,-3.766979873E-1,-3.991409205E-3,-2.922483906E-2
7.946455385E0,-3.974706233E-1,3.329281136E-2,-3.987747431E-2
7.951533406E0,-3.980032504E-1,7.110965997E-2,-4.467116296E-2
7.956591166E0,-3.857527375E-1,1.046654657E-1,-5.212800577E-2
7.961648927E0,-3.692411482E-1,1.350254864E-1,-5.425853282E-2
7.966706687E0,-3.415443003E-1,1.563307643E-1,-5.479116365E-2
7.971764396E0,-3.063906133E-1,1.696465611E-1,-5.212800577E-2
7.976822208E0,-2.754979432E-1,1.728423387E-1,-4.839958251E-2
7.981840906E0,-2.451379299E-1,1.632549763E-1,-4.147537053E-2
7.986898718E0,-2.131800354E-1,1.494065523E-1,-3.827957809E-2
7.991956427E0,-1.774937212E-1,1.243728474E-1,-3.401852399E-2
7.997014187E0,-1.444705427E-1,9.081703424E-2,-2.656168118E-2
8.002071896E0,-1.039905325E-1,5.246755853E-2,-2.123536170E-2
8.007129708E0,-6.564104557E-2,1.198754273E-2,-1.271325443E-2
8.012200333E0,-2.675891854E-2,-2.689457498E-2,-8.984832093E-3
8.017258041E0,1.531898975E-2,-6.311353296E-2,-7.919568568E-3
8.022315802E0,5.792952701E-2,-9.347354621E-2,-6.854305044E-3
8.027373562E0,9.201795608E-2,-1.147788167E-1,-2.060619183E-3
8.032431323E0,1.239758581E-1,-1.233009323E-1,2.200434916E-3
8.037489083E0,1.516727209E-1,-1.233009323E-1,4.863593727E-3
8.042528406E0,1.767064035E-1,-1.185072437E-1,3.265698440E-3
8.047586166E0,2.012074739E-1,-1.046588197E-1,4.330961965E-3
8.052643875E0,2.177190483E-1,-8.388617635E-2,4.863593727E-3
8.057701635E0,2.390243262E-1,-6.364616752E-2,4.330961965E-3
8.062759396E0,2.560685277E-1,-4.393878952E-2,2.200434916E-3
8.067817156E0,2.683190703E-1,-2.742720582E-2,-3.125882475E-3
8.072973302E0,2.795043588E-1,-1.624193974E-2,-3.658514237E-3
8.078031062E0,2.965485454E-1,-7.719831541E-3,-3.125882475E-3
8.083088771E0,3.040053844E-1,2.696449519E-4,-3.125882475E-3
8.088146531E0,3.098643422E-1,8.022767142E-4,-7.919568568E-3
8.093204291E0,3.082664609E-1,-1.328250859E-3,-5.789041519E-3
8.098262052E0,3.034727573E-1,-7.187199779E-3,-3.658514237E-3
8.103267677E0,2.912222445E-1,-1.943773031E-2,-4.627237795E-4
8.108325437E0,2.651232779E-1,-3.435141966E-2,3.265698440E-3
8.113383146E0,2.321001142E-1,-4.873247072E-2,5.396225490E-3
8.118440906E0,1.905548275E-1,-6.204826757E-2,6.461489014E-3
8.123498666E0,1.293021739E-1,-7.589670271E-2,9.657279588E-3
8.128556427E0,6.165795028E-2,-8.814723045E-2,1.072254311E-2
8.133593354E0,-1.344312541E-2,-9.453881532E-2,8.059384301E-3
8.138651114E0,-9.653368592E-2,-9.613670409E-2,1.667803153E-3
8.143708823E0,-1.748305559E-1,-8.708196878E-2,-6.321672350E-3
8.148766635E0,-2.446053028E-1,-7.163564861E-2,-1.271325443E-2
8.153824343E0,-3.047927022E-1,-5.139563605E-2,-2.336589061E-2
8.158882156E0,-3.495337665E-1,-2.529668063E-2,-3.082273528E-2
8.163900958E0,-3.756327331E-1,3.465435468E-3,-3.614905104E-2
8.168958666E0,-3.889485300E-1,3.595596924E-2,-4.520379379E-2
8.174016375E0,-3.857527375E-1,7.483808696E-2,-5.319326743E-2
8.179074031E0,-3.713716567E-1,1.083938852E-1,-5.745432153E-2
8.184131739E0,-3.484684825E-1,1.344928592E-1,-5.851958320E-2
8.189189448E0,-3.191737533E-1,1.563307643E-1,-5.851958320E-2
8.194298823E0,-2.866832018E-1,1.707118154E-1,-5.798695236E-2
8.199356531E0,-2.568558455E-1,1.696465611E-1,-4.999747872E-2
8.204414239E0,-2.233000547E-1,1.637876034E-1,-4.413852841E-2
8.209471948E0,-1.897442490E-1,1.462107450E-1,-3.774694726E-2
8.214529656E0,-1.545905471E-1,1.206444204E-1,-2.549641766E-2
8.219587312E0,-1.189042181E-1,8.762124926E-2,-1.963746734E-2
8.224637260E0,-8.321788907E-2,4.767386988E-2,-1.324588619E-2
8.229695021E0,-4.273787513E-2,7.193857804E-3,-5.256409757E-3
8.234752677E0,9.379312978E-4,-3.328615427E-2,-9.953556582E-4
8.239810385E0,3.982004896E-2,-6.471142918E-2,1.135171507E-3
8.244868093E0,7.710427046E-2,-8.921249956E-2,3.265698440E-3
8.249925802E0,1.090621725E-1,-1.009303927E-1,8.059384301E-3
8.254985281E0,1.404874474E-1,-1.046588197E-1,1.072254311E-2
8.260042989E0,1.671190262E-1,-9.879986197E-2,1.338570192E-2
8.265100698E0,1.932179928E-1,-8.601670712E-2,1.658149064E-2
8.270158406E0,2.129253745E-1,-6.950511783E-2,1.391833369E-2
8.275216114E0,2.331653684E-1,-4.873247072E-2,1.232043747E-2
8.280273823E0,2.496769577E-1,-2.742720582E-2,1.178780664E-2
8.285307989E0,2.656559050E-1,-9.317726828E-3,9.124647826E-3
8.290365698E0,2.795043588E-1,5.595962517E-3,6.461489014E-3
8.295423406E0,2.917548716E-1,1.465070248E-2,3.798330203E-3
8.300481062E0,3.072011769E-1,2.264017984E-2,4.330961965E-3
8.305538771E0,3.141254187E-1,2.583596855E-2,4.863593727E-3
8.310596479E0,3.178538382E-1,2.157491446E-2,5.396225490E-3
8.315679187E0,3.141254187E-1,1.624859869E-2,1.018991135E-2
8.320736948E0,3.050706685E-1,3.998067230E-3,1.285307016E-2
8.325794604E0,2.864285409E-1,-9.850358590E-3,1.551622897E-2
8.330852312E0,2.571338117E-1,-2.529668063E-2,2.084254473E-2
8.335910021E0,2.145232558E-1,-3.967773542E-2,2.563623153E-2
8.340967729E0,1.617927253E-1,-5.405879393E-2,2.723412588E-2
8.346023875E0,9.308321774E-2,-6.897248328E-2,2.883202210E-2
8.351081583E0,1.585162058E-2,-7.962512225E-2,2.776675858E-2
8.356139343E0,-6.830420345E-2,-8.867985755E-2,2.510360070E-2
8.361197000E0,-1.524600238E-1,-8.495144546E-2,1.924465038E-2
8.366254708E0,-2.312895209E-1,-7.323353738E-2,7.526752539E-3
8.371312416E0,-2.957379520E-1,-5.672195181E-2,-2.060619183E-3
8.376373666E0,-3.500663936E-1,-3.594931215E-2,-5.789041519E-3
8.381431375E0,-3.905464113E-1,-9.317726828E-3,-1.537641417E-2
8.386489083E0,-4.129169583E-1,2.423807606E-2,-2.496378496E-2
8.391546843E0,-4.139822125E-1,5.992439762E-2,-3.135536611E-2
8.396604500E0,-4.022642970E-1,9.614335746E-2,-3.455115855E-2
8.401662208E0,-3.793611526E-1,1.291665435E-1,-3.987747431E-2
8.406721635E0,-3.553927243E-1,1.557981223E-1,-4.094273597E-2
8.411779343E0,-3.245000839E-1,1.701791734E-1,-3.668168560E-2
8.416837052E0,-2.925421596E-1,1.802991927E-1,-3.188800067E-2
8.421894760E0,-2.637800574E-1,1.771034002E-1,-2.656168118E-2
8.426952468E0,-2.318221480E-1,1.648528725E-1,-1.750694029E-2
8.432010177E0,-1.950705647E-1,1.435476094E-1,-8.984832093E-3
8.437044031E0,-1.583189666E-1,1.083938852E-1,6.990798283E-5
8.442101687E0,-1.236979067E-1,7.217492908E-2,5.928857252E-3
8.447159448E0,-8.481578529E-2,3.222754970E-2,1.338570192E-2
8.452217156E0,-4.060734808E-2,-7.187199779E-3,1.817938685E-2
8.457274864E0,-6.599639892E-4,-4.287352785E-2,2.137517743E-2
8.462332521E0,4.408110306E-2,-7.376617193E-2,2.563623153E-2
8.467416687E0,8.189795911E-2,-9.720196575E-2,3.096254729E-2
8.472474343E0,1.143884882E-1,-1.062567085E-1,3.256044537E-2
8.477532052E0,1.415527016E-1,-1.105177626E-1,3.469097242E-2
8.482589760E0,1.676516682E-1,-1.051914468E-1,3.895202652E-2
8.487647468E0,1.910874695E-1,-9.187564999E-2,3.628886491E-2
8.492705177E0,2.107948512E-1,-7.216827571E-2,3.788676113E-2
8.497768771E0,2.273064256E-1,-5.459142849E-2,3.788676113E-2
8.502826479E0,2.422201037E-1,-3.381878510E-2,3.841939196E-2
8.507884187E0,2.603295743E-1,-1.570930704E-2,3.788676113E-2
8.512941896E0,2.763085365E-1,-2.926145680E-3,3.522360325E-2
8.517999604E0,2.912222445E-1,6.128593348E-3,3.362570703E-2
8.523057312E0,3.045380414E-1,1.038964838E-2,3.362570703E-2
8.528106427E0,3.146580458E-1,1.198754273E-2,3.362570703E-2
8.533164135E0,3.226475120E-1,8.259121329E-3,3.362570703E-2
8.538221843E0,3.237127960E-1,2.696449519E-4,3.788676113E-2
8.543279552E0,3.162559271E-1,-9.850358590E-3,3.895202652E-2
8.548337260E0,2.960159183E-1,-2.582931146E-2,4.161518440E-2
8.553394968E0,2.693843246E-1,-4.234089330E-2,4.427834228E-2
8.558453771E0,2.283716947E-1,-5.725458637E-2,4.587623477E-2
8.563511479E0,1.729779840E-1,-7.270091027E-2,4.694150388E-2
8.568569187E0,1.021379605E-1,-8.761459589E-2,4.747413471E-2
8.573626896E0,2.011267468E-2,-9.720196575E-2,4.214781523E-2
8.578684604E0,-6.404314190E-2,-1.009303927E-1,3.628886491E-2
8.583742312E0,-1.508621275E-1,-9.294091165E-2,2.883202210E-2
8.588799916E0,-2.323547900E-1,-8.282091469E-2,1.711412333E-2
8.593857625E0,-3.037274182E-1,-6.471142918E-2,5.396225490E-3
8.598915333E0,-3.580558598E-1,-4.234089330E-2,-3.658514237E-3
8.603973041E0,-3.996011615E-1,-1.464404445E-2,-1.271325443E-2
8.609030750E0,-4.193085134E-1,1.624859869E-2,-2.230062708E-2
8.614088458E0,-4.203737974E-1,5.459808186E-2,-3.082273528E-2
8.619144396E0,-4.075906277E-1,9.720861912E-2,-3.827957809E-2
8.624202104E0,-3.846874535E-1,1.296991706E-1,-4.041010514E-2
8.629259812E0,-3.575232327E-1,1.563307643E-1,-4.254063219E-2
8.634317468E0,-3.229021728E-1,1.765707731E-1,-4.254063219E-2
8.639375177E0,-2.888137400E-1,1.840276122E-1,-3.827957809E-2
8.644432937E0,-2.557905614E-1,1.824297160E-1,-3.508378938E-2
8.649479239E0,-2.233000547E-1,1.691139191E-1,-2.922483906E-2
8.654536896E0,-1.844179183E-1,1.462107450E-1,-2.176799625E-2
8.659594604E0,-1.471336931E-1,1.131875739E-1,-1.484378148E-2
8.664652312E0,-1.055884287E-1,7.270756364E-2,-5.789041519E-3
8.669709164E0,-5.978208408E-2,3.222754970E-2,-9.953556582E-4
8.674766872E0,-1.610628329E-2,-1.144825388E-2,3.798330203E-3
8.679841872E0,2.863478474E-2,-5.192826316E-2,6.994120777E-3
8.684899528E0,7.018005103E-2,-8.335354179E-2,1.178780664E-2
8.689957236E0,1.090621725E-1,-1.051914468E-1,1.338570192E-2
8.695014945E0,1.399548203E-1,-1.179746017E-1,1.551622897E-2
8.700072653E0,1.687169373E-1,-1.169093400E-1,1.817938685E-2
8.705130361E0,1.996095777E-1,-1.094525009E-1,1.817938685E-2
8.710166299E0,2.203822136E-1,-9.187564999E-2,1.764675602E-2
8.715224007E0,2.406222224E-1,-6.897248328E-2,1.817938685E-2
8.720281716E0,2.619274855E-1,-4.500405118E-2,1.551622897E-2
8.725339372E0,2.757759094E-1,-2.636194229E-2,1.232043747E-2
8.730397080E0,2.901569605E-1,-7.719831541E-3,9.657279588E-3
8.735454789E0,3.082664609E-1,7.193857804E-3,6.461489014E-3
8.740561559E0,3.231801391E-1,1.624859869E-2,5.396225490E-3
8.745619216E0,3.370285928E-1,2.157491446E-2,6.461489014E-3
8.750676924E0,3.460832834E-1,2.317281067E-2,8.059384301E-3
8.755734632E0,3.514096141E-1,1.891175658E-2,8.059384301E-3
8.760792341E0,3.535401523E-1,1.145491190E-2,8.592016064E-3
8.765850049E0,3.434201479E-1,-2.393513918E-3,1.391833369E-2
8.770881976E0,3.210496008E-1,-1.997036114E-2,1.764675602E-2
8.775939684E0,2.906895876E-1,-3.807983920E-2,1.977728121E-2
8.780997393E0,2.475464344E-1,-5.405879393E-2,2.244044095E-2
8.786055101E0,1.889569461E-1,-7.003774494E-2,2.510360070E-2
8.791112809E0,1.181169152E-1,-8.495144546E-2,2.670149505E-2
8.796170518E0,3.449372947E-2,-9.400618076E-2,2.510360070E-2
8.801217549E0,-5.552103370E-2,-9.879986197E-2,2.030991390E-2
8.806275257E0,-1.471336931E-1,-9.294091165E-2,1.178780664E-2
8.811332966E0,-2.339526862E-1,-7.909248769E-2,6.990798283E-5
8.816390674E0,-3.079884946E-1,-6.258090585E-2,-8.452200331E-3
8.821448382E0,-3.713716567E-1,-4.021036997E-2,-1.697430946E-2
8.826506091E0,-4.139822125E-1,-1.038299035E-2,-2.496378496E-2
8.831575726E0,-4.363527298E-1,2.157491446E-2,-3.614905104E-2
8.836633434E0,-4.416790605E-1,5.939177051E-2,-4.360589385E-2
8.841691143E0,-4.320916831E-1,9.720861912E-2,-4.786695167E-2
8.846748851E0,-4.118516743E-1,1.323623359E-1,-5.212800577E-2
8.851806559E0,-3.836221993E-1,1.584612876E-1,-5.212800577E-2
8.856864268E0,-3.500663936E-1,1.781686693E-1,-4.786695167E-2
8.861890309E0,-3.143800795E-1,1.861581355E-1,-4.360589385E-2
8.866948018E0,-2.818895280E-1,1.856254935E-1,-3.934484348E-2
8.872005726E0,-2.435400486E-1,1.723097116E-1,-3.295326233E-2
8.877063434E0,-2.057231963E-1,1.515370756E-1,-2.230062708E-2
8.882121091E0,-1.663084477E-1,1.190465242E-1,-1.377851702E-2
8.887178799E0,-1.263610721E-1,8.016440272E-2,-6.321672350E-3
8.892183903E0,-8.161999285E-2,3.329281136E-2,-4.627237795E-4
8.897241611E0,-3.315050155E-2,-1.357878093E-2,3.798330203E-3
8.902299320E0,1.159056649E-2,-5.405879393E-2,6.461489014E-3
8.907357080E0,5.846216157E-2,-9.081038833E-2,6.994120777E-3
8.912414736E0,1.016053334E-1,-1.169093400E-1,8.592016064E-3
8.917472445E0,1.346284896E-1,-1.302251220E-1,1.018991135E-2
8.922589945E0,1.676516682E-1,-1.344861835E-1,1.125517488E-2
8.927647653E0,1.974790543E-1,-1.296924949E-1,1.072254311E-2
8.932705309E0,2.187843174E-1,-1.115830243E-1,8.592016064E-3
8.937763018E0,2.427527457E-1,-9.187564999E-2,6.461489014E-3
8.942820726E0,2.624601424E-1,-7.003774494E-2,3.265698440E-3
8.947878434E0,2.795043588E-1,-4.660194740E-2,2.200434916E-3
8.952954736E0,2.992117107E-1,-2.582931146E-2,6.990798283E-5
8.958012445E0,3.135927618E-1,-9.850358590E-3,-2.593250712E-3
8.963070101E0,3.311696053E-1,8.022767142E-4,-6.854305044E-3
8.968127861E0,3.466159403E-1,8.791752160E-3,-9.517463855E-3
8.973185518E0,3.578011990E-1,1.465070248E-2,-6.321672350E-3
8.978243278E0,3.668559492E-1,1.305280626E-2,-6.854305044E-3
8.983305205E0,3.668559492E-1,6.661225110E-3,-6.321672350E-3
8.988362914E0,3.562032878E-1,-5.589304492E-3,-9.953556582E-4
8.993420622E0,3.317022622E-1,-2.210089006E-2,3.265698440E-3
8.998478278E0,2.944180071E-1,-3.594931215E-2,3.265698440E-3
9.003535986E0,2.491443157E-1,-5.246089771E-2,5.396225490E-3
9.008593695E0,1.884243041E-1,-7.003774494E-2,7.526752539E-3
9.013662653E0,1.117253304E-1,-8.761459589E-2,5.928857252E-3
9.018720361E0,2.490636148E-2,-9.773460031E-2,3.265698440E-3
9.023778070E0,-6.777156889E-2,-1.019956544E-1,-3.125882475E-3
9.028835778E0,-1.583189666E-1,-9.613670409E-2,-1.111535914E-2
9.033893486E0,-2.403442562E-1,-8.122301847E-2,-2.123536170E-2
9.038951195E0,-3.138474226E-1,-5.938510969E-2,-3.401852399E-2
9.044004684E0,-3.687085211E-1,-3.648194298E-2,-4.200800136E-2
9.049062393E0,-4.059927166E-1,-3.991409205E-3,-5.053010955E-2
9.054120101E0,-4.257001281E-1,3.542334214E-2,-6.011747941E-2
9.059177861E0,-4.230369329E-1,7.377282530E-2,-6.757431477E-2
9.064235518E0,-4.075906277E-1,1.121223122E-1,-7.236800343E-2
9.069293226E0,-3.841548264E-1,1.435476094E-1,-7.396589965E-2
9.074352236E0,-3.532621861E-1,1.696465611E-1,-7.183537632E-2
9.079409997E0,-3.218369186E-1,1.861581355E-1,-6.810694933E-2
9.084467653E0,-2.893463969E-1,1.920170933E-1,-6.065011024E-2
9.089525361E0,-2.531274259E-1,1.877560318E-1,-5.266063660E-2
9.094583070E0,-2.169084698E-1,1.717770845E-1,-4.467116296E-2
9.099640778E0,-1.828200221E-1,1.472760290E-1,-3.508378938E-2
9.104674789E0,-1.444705427E-1,1.121223122E-1,-2.656168118E-2
9.109732497E0,-1.023926288E-1,6.897913665E-2,-1.910483651E-2
9.114790153E0,-5.765156075E-2,2.583596855E-2,-1.058272738E-2
9.119847914E0,-9.182071313E-3,-1.677457057E-2,-4.191146232E-3
9.124905570E0,3.768952191E-2,-5.565669015E-2,6.990798283E-5
9.129963278E0,7.976742834E-2,-8.495144546E-2,2.200434916E-3
9.135035882E0,1.213127077E-1,-1.073219702E-1,6.994120777E-3
9.140093591E0,1.559337676E-1,-1.163767129E-1,9.124647826E-3
9.145151247E0,1.878916770E-1,-1.190398782E-1,1.285307016E-2
9.150209007E0,2.171864212E-1,-1.105177626E-1,1.391833369E-2
9.155266664E0,2.422201037E-1,-9.560407698E-2,1.498359721E-2
9.160324372E0,2.603295743E-1,-7.483144104E-2,1.604885980E-2
9.165384789E0,2.800369859E-1,-5.352615938E-2,1.658149064E-2
9.170442757E0,2.960159183E-1,-3.328615427E-2,1.498359721E-2
9.175500674E0,3.130601346E-1,-1.570930704E-2,1.178780664E-2
9.180558591E0,3.253106475E-1,-1.860882156E-3,1.072254311E-2
9.185616559E0,3.370285928E-1,5.595962517E-3,1.178780664E-2
9.190674528E0,3.466159403E-1,1.358543709E-2,1.178780664E-2
9.195708903E0,3.546054363E-1,1.465070248E-2,1.232043747E-2
9.200766820E0,3.551380336E-1,9.324384853E-3,1.391833369E-2
9.205824789E0,3.460832834E-1,1.867540181E-3,1.817938685E-2
9.210882757E0,3.290390670E-1,-1.038299035E-2,2.244044095E-2
9.215940674E0,2.970812023E-1,-2.795983851E-2,2.403833717E-2
9.220998643E0,2.597969770E-1,-4.393878952E-2,2.670149505E-2
9.226076247E0,2.145232558E-1,-5.991774425E-2,3.149517998E-2
9.231134216E0,1.554011405E-1,-7.483144104E-2,3.522360325E-2
9.236192132E0,7.976742834E-2,-8.548407257E-2,3.309307620E-2
9.241250101E0,-1.192595810E-3,-9.347354621E-2,2.936465293E-2
9.246308018E0,-8.534841985E-2,-9.507144243E-2,2.457096800E-2
9.251365986E0,-1.652431786E-1,-8.441881090E-2,1.658149064E-2
9.256437966E0,-2.430074215E-1,-6.790722162E-2,5.928857252E-3
9.261495882E0,-3.106516600E-1,-4.553668573E-2,-2.593250712E-3
9.266553851E0,-3.580558598E-1,-1.890509762E-2,-1.058272738E-2
9.271611768E0,-3.932095766E-1,1.145491190E-2,-1.910483651E-2
9.276669736E0,-4.091885090E-1,4.873913899E-2,-2.602904849E-2
9.281727653E0,-4.065253735E-1,8.549071848E-2,-3.242063150E-2
9.286783018E0,-3.974706233E-1,1.190465242E-1,-3.827957809E-2
9.291840934E0,-3.745674491E-1,1.462107450E-1,-4.041010514E-2
9.296898903E0,-3.452727199E-1,1.685812920E-1,-3.721431643E-2
9.301956820E0,-3.127821684E-1,1.813644469E-1,-3.188800067E-2
9.307014789E0,-2.802916467E-1,1.829623580E-1,-2.709431201E-2
9.312072705E0,-2.499316335E-1,1.755055040E-1,-1.803957298E-2
9.317130778E0,-2.147779465E-1,1.573960185E-1,-8.984832093E-3
9.322188695E0,-1.828200221E-1,1.312970668E-1,-3.125882475E-3
9.327246664E0,-1.455358118E-1,9.667599201E-2,6.994120777E-3
9.332304580E0,-1.055884287E-1,5.566334352E-2,1.445096545E-2
9.337362549E0,-6.244525313E-2,1.358543709E-2,2.190780826E-2
9.342420466E0,-1.983470656E-2,-2.582931146E-2,2.670149505E-2
9.347478799E0,2.543899231E-2,-6.098300591E-2,2.723412588E-2
9.352536716E0,6.645163149E-2,-8.761459589E-2,2.829938941E-2
9.357594684E0,1.048011184E-1,-1.025282890E-1,3.149517998E-2
9.362652601E0,1.367590129E-1,-1.089198738E-1,3.415834159E-2
9.367710570E0,1.644558758E-1,-1.041261852E-1,3.522360325E-2
9.372768486E0,1.900222003E-1,-9.400618076E-2,3.575623408E-2
9.377815414E0,2.145232558E-1,-7.802722603E-2,3.362570703E-2
9.382873382E0,2.315674722E-1,-5.565669015E-2,3.309307620E-2
9.387931351E0,2.502095997E-1,-3.488404676E-2,3.149517998E-2
9.392989268E0,2.629927397E-1,-1.890509762E-2,2.723412588E-2
9.398047184E0,2.763085365E-1,-5.056672730E-3,2.457096800E-2
9.403105153E0,2.880264521E-1,6.661225110E-3,2.137517743E-2
9.408148382E0,2.981464267E-1,1.145491190E-2,2.403833717E-2
9.413206351E0,3.072011769E-1,1.145491190E-2,2.350570261E-2
9.418264268E0,3.098643422E-1,1.038964838E-2,2.350570261E-2
9.423322236E0,3.077338040E-1,2.400171012E-3,2.457096800E-2
9.428380153E0,2.944180071E-1,-8.252463304E-3,2.723412588E-2
9.433438122E0,2.741780281E-1,-2.316615172E-2,3.309307620E-2
9.438506455E0,2.432853729E-1,-3.754720837E-2,3.735413030E-2
9.443564424E0,1.926853657E-1,-5.512405559E-2,3.948465735E-2
9.448622341E0,1.330305934E-1,-7.057037950E-2,4.161518440E-2
9.453680257E0,6.538636982E-2,-8.069038391E-2,4.161518440E-2
9.458738226E0,-7.051544730E-3,-8.974512666E-2,3.735413030E-2
9.463796195E0,-9.227263182E-2,-8.921249956E-2,3.309307620E-2
9.468853330E0,-1.732326448E-1,-8.335354179E-2,2.297307178E-2
9.473911247E0,-2.446053028E-1,-7.216827571E-2,1.232043747E-2
9.478969216E0,-3.058579564E-1,-5.405879393E-2,5.396225490E-3
9.484027184E0,-3.527295589E-1,-2.955773287E-2,-5.256409757E-3
9.489085101E0,-3.793611526E-1,-2.629868104E-4,-1.164799090E-2
9.494143018E0,-3.932095766E-1,3.595596924E-2,-2.017010003E-2
9.499236611E0,-3.889485300E-1,7.004439831E-2,-2.815957554E-2
9.504294580E0,-3.729695678E-1,1.036002040E-1,-3.348589316E-2
9.509352497E0,-3.505990505E-1,1.328949630E-1,-3.401852399E-2
9.514410466E0,-3.245000839E-1,1.557981223E-1,-3.242063150E-2
9.519468434E0,-2.925421596E-1,1.680486500E-1,-2.975746989E-2
9.524526351E0,-2.627148032E-1,1.696465611E-1,-2.496378496E-2
9.529556507E0,-2.328874022E-1,1.643202305E-1,-1.963746734E-2
9.534614476E0,-1.987989843E-1,1.467433870E-1,-1.111535914E-2
9.539672393E0,-1.652431786E-1,1.195791662E-1,-4.723777995E-3
9.544730361E0,-1.295568496E-1,8.442545682E-2,-4.627237795E-4
9.549788278E0,-9.546842426E-2,4.341281578E-2,7.526752539E-3
9.554846247E0,-5.445577204E-2,8.022767142E-4,1.285307016E-2
9.559897549E0,-1.077996753E-2,-3.754720837E-2,1.498359721E-2
9.564955518E0,3.129794076E-2,-6.843984872E-2,1.817938685E-2
9.570013434E0,6.911478937E-2,-9.081038833E-2,1.977728121E-2
9.575071403E0,1.021379605E-1,-1.051914468E-1,2.137517743E-2
9.580129320E0,1.314327121E-1,-1.083872318E-1,2.670149505E-2
9.585187289E0,1.580643058E-1,-1.041261852E-1,2.723412588E-2
9.590278486E0,1.830979884E-1,-9.294091165E-2,2.403833717E-2
9.595336455E0,2.033379972E-1,-7.270091027E-2,2.616886422E-2
9.600394372E0,2.230453640E-1,-5.139563605E-2,2.616886422E-2
9.605452341E0,2.390243262E-1,-3.328615427E-2,2.297307178E-2
9.610510257E0,2.539380193E-1,-1.730720326E-2,2.030991390E-2
9.615568226E0,2.677864134E-1,-4.524040967E-3,1.817938685E-2
9.620609632E0,2.821674943E-1,5.595962517E-3,1.871201769E-2
9.625667601E0,2.965485454E-1,1.145491190E-2,2.030991390E-2
9.630725518E0,3.061359227E-1,1.358543709E-2,2.030991390E-2
9.635783486E0,3.109295964E-1,9.857015684E-3,1.871201769E-2
9.640841403E0,3.125275075E-1,2.932803705E-3,2.244044095E-2
9.645899372E0,3.024074733E-1,-8.785095066E-3,2.403833717E-2
9.650943539E0,2.816348672E-1,-2.476404794E-2,2.723412588E-2
9.656001507E0,2.507422268E-1,-3.861247003E-2,3.096254729E-2
9.661059424E0,2.123927325E-1,-5.246089771E-2,3.149517998E-2
9.666117393E0,1.665864140E-1,-6.577669084E-2,3.202781081E-2
9.671175309E0,1.074642763E-1,-7.909248769E-2,3.149517998E-2
9.676233278E0,3.236320242E-2,-8.654933423E-2,2.670149505E-2
9.681279789E0,-3.847681731E-2,-8.548407257E-2,2.244044095E-2
9.686337705E0,-1.087842211E-1,-8.069038391E-2,1.445096545E-2
9.691395674E0,-1.764284521E-1,-6.577669084E-2,2.733066678E-3
9.696453591E0,-2.307568789E-1,-4.500405118E-2,-4.723777995E-3
9.701511559E0,-2.723021805E-1,-2.103562467E-2,-1.218062267E-2
9.706569528E0,-3.010642827E-1,6.128593348E-3,-1.963746734E-2
9.711627393E0,-3.159779906E-1,3.648860380E-2,-2.443115413E-2
9.716685309E0,-3.202390373E-1,6.951177120E-2,-2.815957554E-2
9.721743278E0,-3.074558675E-1,1.009370461E-1,-3.401852399E-2
9.726801195E0,-2.877484858E-1,1.259707510E-1,-3.614905104E-2
9.731859111E0,-2.664432228E-1,1.424823403E-1,-3.508378938E-2
9.736917080E0,-2.424747795E-1,1.526023299E-1,-3.614905104E-2
9.742034164E0,-2.169084698E-1,1.542002410E-1,-3.135536611E-2
9.747092132E0,-1.897442490E-1,1.462107450E-1,-2.656168118E-2
9.752150101E0,-1.620474011E-1,1.312970668E-1,-2.017010003E-2
9.757208018E0,-1.316873729E-1,1.078612581E-1,-1.537641417E-2
9.762265986E0,-1.050557941E-1,7.590334862E-2,-9.517463855E-3
9.767323903E0,-7.469578832E-2,4.128229246E-2,-4.191146232E-3
9.772335674E0,-4.167260975E-2,3.998067230E-3,-9.953556582E-4
9.777393591E0,-8.649440482E-3,-3.062299639E-2,2.200434916E-3
9.782451559E0,2.650425583E-2,-5.352615938E-2,1.135171507E-3
9.787509476E0,5.579900369E-2,-7.589670271E-2,1.135171507E-3
9.792567445E0,8.402848244E-2,-8.761459589E-2,4.330961965E-3
9.797625361E0,1.111927032E-1,-8.761459589E-2,5.928857252E-3
9.802683747E0,1.335632354E-1,-8.175565302E-2,4.863593727E-3
9.807741664E0,1.516727209E-1,-7.003774494E-2,6.461489014E-3
9.812799632E0,1.644558758E-1,-5.405879393E-2,5.928857252E-3
9.817857549E0,1.825653464E-1,-3.328615427E-2,3.265698440E-3
9.822915518E0,1.942832470E-1,-1.570930704E-2,-1.527987421E-3
9.827973434E0,2.033379972E-1,-1.860882156E-3,-1.527987421E-3
9.833030361E0,2.145232558E-1,9.857015684E-3,-3.658514237E-3
9.838088278E0,2.235780060E-1,1.571596600E-2,-4.191146232E-3
9.843146195E0,2.299695909E-1,1.944438741E-2,-4.723777995E-3
9.848204164E0,2.342306376E-1,2.210754529E-2,-6.321672350E-3
9.853262132E0,2.310348451E-1,1.465070248E-2,-2.060619183E-3
9.858320049E0,2.267737836E-1,5.595962517E-3,6.990798283E-5
9.863343174E0,2.139906287E-1,-5.589304492E-3,1.667803153E-3
9.868401143E0,1.948158890E-1,-1.730720326E-2,5.396225490E-3
9.873459059E0,1.687169373E-1,-3.062299639E-2,9.124647826E-3
9.878517028E0,1.324979663E-1,-4.500405118E-2,1.018991135E-2
9.883574945E0,8.669164032E-2,-5.778721347E-2,8.592016064E-3
9.888632914E0,2.916741557E-2,-6.897248328E-2,9.657279588E-3
9.893691455E0,-2.835681476E-2,-7.483144104E-2,3.798330203E-3
9.898749424E0,-8.907683939E-2,-7.376617193E-2,6.025396870E-4
9.903807341E0,-1.503295004E-1,-6.737458706E-2,-2.593250712E-3
9.908865309E0,-2.046579272E-1,-5.512405559E-2,-1.111535914E-2
9.913923226E0,-2.499316335E-1,-3.648194298E-2,-1.697430946E-2
9.918981143E0,-2.813569009E-1,-1.730720326E-2,-2.283325978E-2
9.924058799E0,-3.042600453E-1,8.259121329E-3,-2.815957554E-2
9.929116716E0,-3.159779906E-1,3.329281136E-2,-3.188800067E-2
9.934174684E0,-3.111842871E-1,5.992439762E-2,-3.668168560E-2
9.939232601E0,-2.994663715E-1,8.389282972E-2,-3.827957809E-2
9.944290570E0,-2.829547822E-1,1.020023078E-1,-3.934484348E-2
9.949348486E0,-2.605842650E-1,1.153180972E-1,-4.147537053E-2
9.954405205E0,-2.339526862E-1,1.217096895E-1,-3.934484348E-2
9.959463122E0,-2.121147811E-1,1.190465242E-1,-3.561642021E-2
9.964521091E0,-1.865484416E-1,1.131875739E-1,-2.975746989E-2
9.969579007E0,-1.620474011E-1,9.827388078E-2,-2.869220637E-2
9.974636976E0,-1.359484345E-1,7.643598318E-2,-2.336589061E-2
9.979694893E0,-1.045231670E-1,4.927176610E-2,-1.750694029E-2
9.984752028E0,-7.203262299E-2,1.624859869E-2,-1.377851702E-2
9.989809945E0,-4.167260975E-2,-8.785095066E-3,-8.984832093E-3
9.994867914E0,-9.182071313E-3,-3.435141966E-2,-3.658514237E-3
9.999925830E0,2.330846526E-2,-5.938510969E-2,-1.527987421E-3
1.000498380E1,5.473373830E-2,-7.642932981E-2,-4.627237795E-4
1.001004172E1,8.136532456E-2,-8.388617635E-2,4.330961965E-3
1.001511484E1,1.042684838E-1,-8.654933423E-2,6.461489014E-3
1.002017276E1,1.261063963E-1,-8.228828013E-2,7.526752539E-3
1.002523073E1,1.431505978E-1,-6.950511783E-2,4.863593727E-3
1.003028864E1,1.617927253E-1,-5.725458637E-2,5.928857252E-3
1.003534661E1,1.777716726E-1,-3.914510086E-2,5.396225490E-3
1.004040453E1,1.916200966E-1,-2.156825736E-2,1.667803153E-3
1.004546031E1,2.038706243E-1,-9.317726828E-3,2.200434916E-3
1.005051823E1,2.171864212E-1,1.334908418E-3,3.265698440E-3
1.005557620E1,2.283716947E-1,8.259121329E-3,2.733066678E-3
1.006063411E1,2.374264151E-1,1.305280626E-2,2.733066678E-3
1.006569208E1,2.459485382E-1,1.358543709E-2,2.200434916E-3
1.007075000E1,2.480790615E-1,8.791752160E-3,1.667803153E-3
1.007580661E1,2.448832691E-1,-2.629868104E-4,5.396225490E-3
