"Time (s)","Gyroscope x (rad/s)","Gyroscope y (rad/s)","Gyroscope z (rad/s)"
5.437854900E-2,-9.520883560E-1,-4.913577735E-1,-9.577342868E-1
5.944381000E-2,-1.021863103E0,-5.334357023E-1,-9.710500836E-1
6.449766400E-2,-1.325463176E0,-8.604715466E-1,-8.075321317E-1
6.954433100E-2,-1.714817047E0,-1.315871716E0,-6.237742305E-1
7.459438300E-2,-2.078072309E0,-1.691909671E0,-4.629194140E-1
7.969771600E-2,-2.430141926E0,-1.846372962E0,-3.105867505E-1
8.473568500E-2,-2.730013371E0,-1.737716079E0,-1.651782691E-1
8.980714300E-2,-2.932413578E0,-1.477259040E0,-4.427085444E-2
9.482407000E-2,-3.018167257E0,-1.231715798E0,3.242811933E-2
9.988453900E-2,-3.014438629E0,-1.124656916E0,7.290814072E-2
1.049424040E-1,-3.022428274E0,-1.218400002E0,1.187144667E-1
1.100266740E-1,-3.175293684E0,-1.505488515E0,2.151208073E-1
1.150573510E-1,-3.474632502E0,-1.865015030E0,3.738450706E-1
1.201258930E-1,-3.831495762E0,-2.123874187E0,5.767777562E-1
1.251543310E-1,-4.153205395E0,-2.151571035E0,7.839714885E-1
1.302388100E-1,-4.436032772E0,-1.996042371E0,9.325757623E-1
1.353104240E-1,-4.737502575E0,-1.876200318E0,9.890347719E-1
1.403823510E-1,-5.126323223E0,-1.990183473E0,9.789147377E-1
1.454269350E-1,-5.654161930E0,-2.359829903E0,9.528158307E-1
1.504754240E-1,-6.211827278E0,-2.859971046E0,9.453589320E-1
1.555643830E-1,-6.590528488E0,-3.352655411E0,9.794474244E-1
1.606041220E-1,-6.743926525E0,-3.728693485E0,1.055081248E0
1.656667790E-1,-6.783873558E0,-3.780358791E0,1.102485418E0
1.706920910E-1,-6.717294693E0,-3.371830225E0,1.027916908E0
1.757486540E-1,-6.534069538E0,-2.698051214E0,8.473547101E-1
1.808238100E-1,-6.323147297E0,-2.049305677E0,6.113988161E-1
1.858662580E-1,-6.183064938E0,-1.629059076E0,3.642576933E-1
1.909168830E-1,-6.201707363E0,-1.367004275E0,1.831628978E-1
1.959825600E-1,-6.321016788E0,-1.178452611E0,1.053986698E-1
2.011237580E-1,-6.449913979E0,-1.039435863E0,1.378892064E-1
2.060971430E-1,-6.496785164E0,-7.028125525E-1,2.310997546E-1
2.112119350E-1,-6.356170654E0,-8.975344896E-2,3.083313704E-1
2.162278720E-1,-6.083463192E0,5.233057141E-1,3.386913836E-1
2.213535490E-1,-5.884791374E0,7.145205140E-1,3.093966246E-1
2.263281850E-1,-5.828332424E0,3.805603981E-1,2.417524010E-1
2.314269350E-1,-5.818744659E0,-4.423556626E-1,7.983235270E-2
2.364562580E-1,-5.743111134E0,-1.493770599E0,-2.173761725E-1
2.415337060E-1,-5.540178299E0,-2.278870106E0,-5.108562708E-1
2.465865700E-1,-5.221132278E0,-2.657571077E0,-7.047342658E-1
2.516622470E-1,-4.827517509E0,-2.818425894E0,-7.952815890E-1
2.567009970E-1,-4.399281502E0,-2.870091200E0,-7.665195465E-1
2.617557890E-1,-3.955599070E0,-2.916429996E0,-6.450794339E-1
2.668158410E-1,-3.513514519E0,-3.076219559E0,-4.932794273E-1
2.718659450E-1,-3.055451393E0,-3.270630360E0,-3.670457006E-1
2.769257370E-1,-2.586735487E0,-3.496466160E0,-3.446751535E-1
2.819706330E-1,-2.171815395E0,-3.622699738E0,-4.373531044E-1
2.870458930E-1,-1.831996083E0,-3.489542007E0,-5.609236360E-1
2.921303720E-1,-1.496970654E0,-3.154516459E0,-6.631889343E-1
2.971628200E-1,-1.143835783E0,-2.685267925E0,-7.686500549E-1
3.022964140E-1,-7.843093872E-1,-2.148907900E0,-8.693174124E-1
3.072809970E-1,-4.221198559E-1,-1.693507552E0,-9.454838037E-1
3.124119870E-1,-8.762708306E-2,-1.423463225E0,-9.939532876E-1
3.173941220E-1,1.893414259E-1,-1.249825358E0,-9.742459059E-1
3.225316220E-1,3.906762302E-1,-1.091101050E0,-8.671869636E-1
3.275107370E-1,5.595205426E-1,-8.775158525E-1,-6.994078755E-1
3.326209450E-1,7.544637918E-1,-6.234504580E-1,-4.836920500E-1
3.376262060E-1,9.696469903E-1,-4.130609334E-1,-2.205719650E-1
3.427006330E-1,1.174177647E0,-2.745766342E-1,3.455865011E-2
3.477416220E-1,1.343021870E0,-1.808334738E-1,2.145881802E-1
3.528091740E-1,1.496952415E0,-1.083955541E-1,2.880913615E-1
3.578595390E-1,1.638632417E0,-1.305447146E-2,2.838303149E-1
3.629279240E-1,1.758474588E0,1.398108453E-1,2.337629199E-1
3.679751120E-1,1.866598964E0,3.198403716E-1,1.575965881E-1
3.730237580E-1,1.975255728E0,5.190446377E-1,6.864708662E-2
3.781375600E-1,2.101489305E0,7.555330992E-1,-4.000979662E-2
3.832434450E-1,2.259148121E0,1.051676512E0,-1.763635278E-1
3.882082890E-1,2.451961040E0,1.392560720E0,-3.515993953E-1
3.932546430E-1,2.673003197E0,1.714270353E0,-5.571952462E-1
3.983119870E-1,2.915350676E0,1.952356815E0,-7.840963602E-1
4.033844350E-1,3.152904272E0,2.102026224E0,-1.006203771E0
4.084290180E-1,3.361696005E0,2.179257870E0,-1.209669113E0
4.135018830E-1,3.537997007E0,2.191508293E0,-1.381176472E0
4.185495390E-1,3.675948858E0,2.168605328E0,-1.516464949E0
4.236338620E-1,3.772887707E0,2.143038988E0,-1.606479764E0
4.286598510E-1,3.791529894E0,2.144104004E0,-1.645361781E0
4.337637580E-1,3.664230824E0,2.143571615E0,-1.609142900E0
4.387654760E-1,3.243451595E0,2.090308428E0,-1.505279660E0
4.438914140E-1,2.415209293E0,1.888973594E0,-1.349218607E0
4.488820390E-1,1.399480820E0,1.503880858E0,-1.123915434E0
4.540024040E-1,6.543290019E-1,1.057002783E0,-8.245763779E-1
4.590077160E-1,2.750951350E-1,8.631247878E-1,-5.215088725E-1
4.640763620E-1,1.250769105E-2,9.856300354E-1,-2.679761946E-1
4.691161010E-1,-4.109345675E-1,1.202411294E0,-7.036980242E-2
4.741717790E-1,-1.095366359E0,1.398419738E0,6.861795206E-3
4.792377160E-1,-1.885791898E0,1.487369299E0,-3.468348086E-2
4.842909450E-1,-2.635737419E0,1.404278636E0,-1.284266710E-1
4.893501120E-1,-3.346801043E0,1.184834480E0,-1.923424900E-1
4.944670390E-1,-3.928434849E0,1.067655325E0,-1.880814284E-1
4.994736540E-1,-3.846409559E0,1.819731474E0,-4.323471803E-3
5.045533930E-1,-2.517493486E0,3.503380537E0,5.586683154E-1
5.096196950E-1,-4.599366784E-1,4.077557087E0,1.305950642E0
5.146626640E-1,6.330237389E-1,3.043719292E0,1.572799206E0
5.197102680E-1,-2.506124079E-1,1.181105971E0,9.176621437E-1
5.247573510E-1,-2.043983698E0,-1.286044359E0,-1.737003624E-1
5.298204240E-1,-2.633074522E0,-2.792326689E0,-7.281700373E-1
5.348991220E-1,-1.477795839E0,-2.725748062E0,-8.389574289E-1
5.399572990E-1,1.930698603E-1,-2.410962582E0,-1.150014281E0
5.450167790E-1,1.575781941E0,-1.931061268E0,-1.673591256E0
5.501234450E-1,2.570205212E0,-1.051686287E0,-2.049629450E0
5.551166740E-1,3.235994816E0,3.225035667E-1,-2.143372536E0
5.602140700E-1,4.047725677E0,2.324666262E0,-2.113545418E0
5.652154760E-1,5.223776817E0,4.513782501E0,-2.162014961E0
5.703035490E-1,6.403555870E0,6.146298885E0,-2.289313793E0
5.753356330E-1,7.092248917E0,7.104503155E0,-2.223799944E0
5.804384970E-1,7.058160305E0,7.558305264E0,-1.782248139E0
5.854711540E-1,6.484515667E0,7.600383282E0,-9.753111601E-1
5.905285490E-1,5.867728233E0,7.393722057E0,6.278812885E-2
5.955841740E-1,5.547616482E0,7.023542881E0,1.159476995E0
6.006683410E-1,5.426176548E0,6.432322025E0,2.216218233E0
6.057016740E-1,5.457602024E0,5.274913311E0,3.113170147E0
6.107890180E-1,5.690894604E0,3.429344654E0,3.682553530E0
6.158214660E-1,6.042431355E0,1.529447079E0,3.826896667E0
6.208562580E-1,6.379587650E0,2.772298455E-1,3.519035339E0
6.259305290E-1,6.577726364E0,-1.920187473E-1,2.853245974E0
6.310865700E-1,6.596368313E0,-2.569997907E-1,1.986654043E0
6.360469870E-1,6.493037701E0,-2.649892867E-1,1.133910656E0
6.411363100E-1,6.287974834E0,-2.149219066E-1,5.299062133E-1
6.461603200E-1,5.890099049E0,-3.435974568E-2,3.285713494E-1
6.512768830E-1,5.387826920E0,2.069224566E-1,5.006114244E-1
6.562815700E-1,4.936688423E0,5.025330782E-1,8.814431429E-1
6.613318310E-1,4.589412212E0,7.411521077E-1,1.179716945E0
6.663973510E-1,4.342803478E0,9.941522479E-1,1.242034912E0
6.714452160E-1,4.188873291E0,1.421322823E0,1.139236927E0
6.765157890E-1,4.108978271E0,1.917203069E0,9.474894404E-1
6.815504760E-1,4.016300201E0,2.304959059E0,7.014135718E-1
6.866298510E-1,3.790464640E0,2.461552858E0,4.691861570E-1
6.916754760E-1,3.362228632E0,2.351830721E0,3.679861426E-1
6.967478200E-1,2.794443130E0,1.976325154E0,4.659903646E-1
7.017841740E-1,2.236245155E0,1.470857620E0,7.253820300E-1
7.068616740E-1,1.825586200E0,9.243774414E-1,1.018329501E0
7.119197470E-1,1.591228247E0,2.932087779E-1,1.269731760E0
7.169757370E-1,1.453809261E0,-3.555366993E-1,1.375192881E0
7.220994870E-1,1.295084953E0,-9.046800137E-1,1.311277032E0
7.270904760E-1,1.080434322E0,-1.208280087E0,1.196228504E0
7.321338620E-1,8.695122600E-1,-1.175256848E0,1.100354910E0
7.372106330E-1,6.862868667E-1,-7.843052745E-1,1.029514790E0
7.423391220E-1,5.238341689E-1,-1.004060879E-1,9.261842370E-1
7.473271430E-1,4.087857008E-1,6.905521154E-1,7.370999455E-1
7.524395390E-1,3.672404289E-1,1.390962839E0,4.590661526E-1
7.574401120E-1,3.890783489E-1,1.878853559E0,9.368077666E-2
7.625495390E-1,3.991983235E-1,2.064742088E0,-3.132498860E-1
7.675553720E-1,2.830846012E-1,1.875657797E0,-7.052668929E-1
7.726221950E-1,3.541085497E-2,1.347819686E0,-1.024845839E0
7.776737580E-1,-2.564713359E-1,6.788341999E-1,-1.221386909E0
7.827640180E-1,-4.780461788E-1,1.035918817E-1,-1.287965894E0
7.877918310E-1,-6.298461556E-1,-2.506082356E-1,-1.267193317E0
7.928495390E-1,-8.130714893E-1,-4.194524884E-1,-1.201679587E0
7.979078200E-1,-1.088442087E0,-5.760462284E-1,-1.093555450E0
8.029838100E-1,-1.340376973E0,-8.034799695E-1,-9.252437353E-1
8.080229240E-1,-1.508688569E0,-1.134776831E0,-6.930163503E-1
8.131025080E-1,-1.723339200E0,-1.585916042E0,-4.187109768E-1
8.181354760E-1,-2.077539444E0,-2.074872017E0,-1.390793025E-1
8.232200600E-1,-2.491926908E0,-2.382733107E0,1.304323524E-1
8.282509450E-1,-2.822691441E0,-2.357699394E0,3.573334813E-1
8.333011540E-1,-3.016569376E0,-2.021075964E0,5.187209249E-1
8.383662580E-1,-3.095398903E0,-1.510814905E0,6.034093499E-1
8.434440180E-1,-3.122562885E0,-1.045294642E0,6.071377993E-1
8.484833930E-1,-3.155586243E0,-7.933599949E-1,5.879630446E-1
8.535844870E-1,-3.202990532E0,-8.002842069E-1,5.858325362E-1
8.585994350E-1,-3.289809227E0,-9.622042179E-1,6.098009348E-1
8.636661010E-1,-3.470371485E0,-1.139570594E0,6.572051644E-1
8.687172470E-1,-3.747339964E0,-1.266869545E0,7.083378434E-1
8.738205810E-1,-4.057331562E0,-1.337709665E0,7.291104198E-1
8.788340180E-1,-4.373182297E0,-1.421332836E0,6.854346395E-1
8.839051640E-1,-4.745491982E0,-1.650897145E0,6.002135873E-1
8.889476120E-1,-5.252557278E0,-2.143048763E0,5.357651711E-1
8.940430290E-1,-5.901302814E0,-2.733737469E0,5.373630524E-1
8.990655290E-1,-6.490925789E0,-3.256781816E0,5.549398661E-1
9.041444870E-1,-6.787069321E0,-3.682354689E0,5.203188062E-1
9.091842260E-1,-6.853116035E0,-3.831491470E0,4.569356143E-1
9.142441220E-1,-6.880812645E0,-3.453322887E0,4.127271771E-1
9.193110490E-1,-6.878149509E0,-2.742792130E0,3.525398076E-1
9.243385490E-1,-6.728480339E0,-2.273010969E0,1.783692092E-1
9.294295910E-1,-6.508502960E0,-2.266619205E0,-7.409822941E-2
9.344477680E-1,-6.404107094E0,-2.418419361E0,-2.855530381E-1
9.395205810E-1,-6.500513554E0,-2.396581411E0,-3.409467340E-1
9.445909450E-1,-6.714098930E0,-2.172876120E0,-2.509319782E-1
9.496503200E-1,-6.838202477E0,-1.714280248E0,-7.143507153E-2
9.547073510E-1,-6.683206081E0,-9.877705574E-1,1.330955178E-1
9.597809970E-1,-6.326343060E0,-2.511408627E-1,2.737103105E-1
9.647925080E-1,-6.036591530E0,4.766554385E-2,2.816997766E-1
9.698870390E-1,-5.975338459E0,-1.062650308E-1,2.135229111E-1
9.749389140E-1,-6.050972462E0,-4.775093496E-1,1.480092108E-1
9.799989140E-1,-6.041917801E0,-1.122526407E0,-3.415085003E-2
9.850257890E-1,-5.888519764E0,-1.819208622E0,-2.940751612E-1
9.901136010E-1,-5.596637249E0,-2.326806784E0,-5.300309658E-1
9.951864660E-1,-5.224328041E0,-2.685800552E0,-7.148542404E-1
1.000267664E0,-4.830713272E0,-2.861568928E0,-7.830311060E-1
1.005293862E0,-4.387031078E0,-2.792859554E0,-6.972773671E-1
1.010361674E0,-3.900738001E0,-2.575545788E0,-5.342921019E-1
1.015383133E0,-3.377161026E0,-2.378472090E0,-3.872856796E-1
1.020471987E0,-2.828550339E0,-2.302305698E0,-3.185762167E-1
1.025514018E0,-2.335333109E0,-2.356634140E0,-3.808941245E-1
1.030596570E0,-1.923076034E0,-2.425876379E0,-5.039320588E-1
1.035630216E0,-1.519341111E0,-2.402440548E0,-6.173825860E-1
1.040699070E0,-1.091637969E0,-2.259695292E0,-7.372247577E-1
1.045747664E0,-6.431619525E-1,-1.968345642E0,-8.554690480E-1
1.050833706E0,-1.952186972E-1,-1.658353925E0,-9.311026931E-1
1.055859122E0,2.037224919E-1,-1.438909531E0,-9.161890149E-1
1.060932924E0,4.908109903E-1,-1.273261070E0,-8.352289796E-1
1.065974591E0,6.708406210E-1,-1.054349542E0,-6.962121725E-1
1.071057404E0,8.151838183E-1,-7.369010448E-1,-5.065952539E-1
1.076094383E0,9.739080667E-1,-4.375619590E-1,-2.578561902E-1
1.081216779E0,1.145948172E0,-2.282377034E-1,1.059021708E-2
1.086209383E0,1.281236649E0,-8.602502942E-2,2.428176552E-1
1.091289018E0,1.362729311E0,-5.246922374E-2,4.244450927E-1
1.096327664E0,1.414927125E0,-1.392882019E-1,5.091335177E-1
1.101434591E0,1.448482990E0,-2.633913755E-1,5.128619671E-1
1.106441779E0,1.488430381E0,-3.640587926E-1,4.782408774E-1
1.111517195E0,1.546487212E0,-4.141261876E-1,4.020745754E-1
1.116560112E0,1.632240891E0,-3.555366993E-1,2.747755647E-1
1.121599643E0,1.752083063E0,-1.595281959E-1,9.155024588E-2
1.126671883E0,1.915068388E0,1.488655806E-1,-1.353508979E-1
1.131799122E0,2.133447170E0,5.265015364E-1,-3.840899169E-1
1.136776883E0,2.393903971E0,9.297037125E-1,-6.312310696E-1
1.141828549E0,2.660752535E0,1.321188092E0,-8.714479804E-1
1.146907768E0,2.906828403E0,1.693497777E0,-1.095153332E0
1.151972039E0,3.116685390E0,2.046632767E0,-1.297020793E0
1.157018758E0,3.300443411E0,2.348634958E0,-1.479180813E0
1.162087351E0,3.464493990E0,2.583525419E0,-1.599555492E0
1.167136414E0,3.580075026E0,2.720944405E0,-1.640035510E0
1.172251726E0,3.591260195E0,2.739586592E0,-1.604349256E0
1.177256154E0,3.399512768E0,2.621342182E0,-1.487170219E0
1.182289956E0,2.962754726E0,2.354493856E0,-1.298618555E0
1.187379070E0,2.351826191E0,1.951824069E0,-1.079706907E0
1.192448654E0,1.746224165E0,1.501217604E0,-8.469468951E-1
1.197484331E0,1.198145986E0,1.192823887E0,-5.982078910E-1
1.202587456E0,6.010658145E-1,1.064459562E0,-3.595888615E-1
1.207602508E0,-8.496392518E-2,1.095352292E0,-1.827551126E-1
1.212676935E0,-7.896357179E-1,1.270588160E0,-9.220770746E-2
1.217718966E0,-1.435185432E0,1.417594433E0,-6.344559044E-2
1.222783706E0,-1.948642373E0,1.370190263E0,-7.463086396E-2
1.227833393E0,-2.325745821E0,1.128908038E0,-1.065887585E-1
1.232912195E0,-2.633607149E0,9.222468734E-1,-1.028603390E-1
1.237950841E0,-2.765699625E0,1.072449088E0,-6.238032877E-2
1.243040789E0,-2.339061737E0,1.958215714E0,5.053760111E-2
1.248063810E0,-1.023993611E0,3.568894148E0,3.914219141E-1
1.253117768E0,4.583204687E-1,4.155853748E0,1.110474825E0
1.258181258E0,7.603227496E-1,2.995782375E0,1.651096106E0
1.263252143E0,-7.161324620E-1,6.271689534E-1,1.362942219E0
1.268298654E0,-3.056516647E0,-2.563827753E0,6.508136392E-1
1.273346779E0,-3.931630611E0,-4.181963921E0,3.701166511E-1
1.278410216E0,-2.686337709E0,-3.675962925E0,2.742429376E-1
1.283465476E0,-7.683303952E-1,-3.098590136E0,-1.811572164E-1
1.288531362E0,8.364890218E-1,-2.512162447E0,-8.501426578E-1
1.293636154E0,1.878849387E0,-1.550762177E0,-1.294890165E0
1.298644018E0,2.477527380E0,-2.005408555E-1,-1.526052356E0
1.303695476E0,3.206700325E0,1.895365238E0,-1.710875630E0
1.308759695E0,4.614446163E0,4.674637318E0,-2.022465229E0
1.313876779E0,6.218732834E0,6.735389233E0,-2.441646576E0
1.318880112E0,7.341520309E0,7.543391705E0,-2.656829596E0
1.323922039E0,7.680274010E0,7.578545570E0,-2.423004389E0
1.328992820E0,7.266419411E0,7.162559986E0,-1.731648207E0
1.334063758E0,6.517006397E0,6.545772552E0,-7.393552661E-1
1.339109174E0,5.913535118E0,5.897559643E0,3.690513670E-1
1.344160424E0,5.596086025E0,5.118852139E0,1.438043356E0
1.349223237E0,5.489559650E0,4.005118847E0,2.394649982E0
1.354269695E0,5.551344872E0,2.420540094E0,3.129149199E0
1.359366414E0,5.735635757E0,6.063962579E-1,3.454587221E0
1.364381987E0,5.935904980E0,-8.279810548E-1,3.290004015E0
1.369430633E0,6.017397881E0,-1.581654906E0,2.709967852E0
1.374487039E0,5.922589779E0,-1.919876099E0,1.839115143E0
1.379560424E0,5.715395927E0,-1.932126641E0,9.208578467E-1
1.384610164E0,5.492755413E0,-1.596568584E0,2.518723905E-1
1.389659956E0,5.301008224E0,-9.835095406E-1,-5.119506642E-2
1.394709695E0,5.160925865E0,-3.049366772E-1,-2.456347831E-2
1.399759487E0,5.075171947E0,3.507330120E-1,1.900871098E-1
1.404809279E0,5.011789322E0,8.695163131E-1,3.647903204E-1
1.409926518E0,4.961721897E0,1.345156550E0,4.239124656E-1
1.414976310E0,4.959058285E0,1.746760964E0,4.153903425E-1
1.420026101E0,4.924970150E0,2.017337799E0,4.074008763E-1
1.425075893E0,4.731091976E0,2.162213802E0,4.228471816E-1
1.430125633E0,4.299127579E0,2.223466396E0,4.670556188E-1
1.435175424E0,3.707374096E0,2.238379955E0,5.623967648E-1
1.440278237E0,3.111359119E0,2.136647224E0,7.397630811E-1
1.445328029E0,2.596836805E0,1.854885101E0,9.799799919E-1
1.450377820E0,2.204287052E0,1.368592381E0,1.203685403E0
1.455427560E0,1.951820016E0,7.555330992E-1,1.337375998E0
1.460477351E0,1.788302064E0,1.531266421E-1,1.331516981E0
1.465527091E0,1.654611468E0,-2.905556262E-1,1.198891759E0
1.470600633E0,1.494821906E0,-4.301051199E-1,1.058809638E0
1.475650372E0,1.336097717E0,-2.921535075E-1,9.890347719E-1
1.480700164E0,1.208266020E0,-9.326049127E-3,9.469568729E-1
1.485749904E0,1.086825967E0,3.001330197E-1,8.564094305E-1
1.490799695E0,9.531354308E-1,4.956088662E-1,6.912935972E-1
1.495849435E0,7.709753513E-1,5.957436562E-1,4.766429961E-1
1.501006570E0,5.121163130E-1,6.836278439E-1,2.295018584E-1
1.506056310E0,2.127772421E-1,8.902890086E-1,-6.877190620E-2
1.511106101E0,-4.981022328E-2,1.259935498E0,-4.309614897E-1
1.516155841E0,-2.420902848E-1,1.588569283E0,-8.272395730E-1
1.521205633E0,-4.093366563E-1,1.629049301E0,-1.193690181E0
1.526255372E0,-6.138672233E-1,1.329710245E0,-1.457342863E0
1.531297664E0,-8.444967270E-1,7.981437445E-1,-1.573456526E0
1.536347404E0,-1.086844206E0,1.701708436E-1,-1.562803984E0
1.541397195E0,-1.307353735E0,-4.785746336E-1,-1.462136626E0
1.546446935E0,-1.457555890E0,-1.039435863E0,-1.268791199E0
1.551496779E0,-1.517210722E0,-1.468737006E0,-1.008334279E0
1.556546518E0,-1.572604299E0,-1.846372962E0,-7.180500627E-1
1.561657768E0,-1.780863404E0,-2.191518307E0,-4.224393964E-1
1.566707508E0,-2.184598684E0,-2.445583582E0,-1.161761358E-1
1.571757299E0,-2.657575369E0,-2.517488956E0,1.938155293E-1
1.576807091E0,-3.048527241E0,-2.335861444E0,4.755777419E-1
1.581856883E0,-3.271699905E0,-1.914017081E0,6.886304617E-1
1.586906622E0,-3.312179804E0,-1.413875818E0,8.169947267E-1
1.592017195E0,-3.215240955E0,-1.014402151E0,8.617357612E-1
1.597066935E0,-3.066103935E0,-8.018820882E-1,8.574746847E-1
1.602116726E0,-2.985676765E0,-7.661957741E-1,8.425610065E-1
1.607166518E0,-3.074093580E0,-8.439599872E-1,8.516157269E-1
1.612216258E0,-3.329756737E0,-9.478232265E-1,9.064767957E-1
1.617266049E0,-3.659988403E0,-1.018663168E0,1.006079078E0
1.622402976E0,-3.925771713E0,-1.073524237E0,1.096093774E0
1.627452664E0,-4.104735851E0,-1.108145237E0,1.140834808E0
1.632502456E0,-4.288493633E0,-1.156614780E0,1.104615808E0
1.637552195E0,-4.617660522E0,-1.212008476E0,1.009274840E0
1.642602039E0,-5.186511040E0,-1.269532681E0,9.506852627E-1
1.647651779E0,-5.960424900E0,-1.310545325E0,9.602726698E-1
1.652701570E0,-6.720490456E0,-1.410147429E0,9.986221194E-1
1.657751935E0,-7.168433666E0,-1.705225468E0,1.002350569E0
1.662801726E0,-7.130084038E0,-2.057827711E0,9.309778810E-1
1.667851466E0,-6.762568474E0,-2.113754034E0,7.434915304E-1
1.672901258E0,-6.345517635E0,-1.863949776E0,3.951503336E-1
1.677950997E0,-6.046178818E0,-1.599231839E0,-1.023277044E-1
1.683000789E0,-5.907694340E0,-1.609884381E0,-6.461447477E-1
1.688093758E0,-5.943380356E0,-1.829861403E0,-1.041357398E0
1.693143549E0,-6.131399632E0,-1.886852980E0,-1.134567976E0
1.698193289E0,-6.333799839E0,-1.599231839E0,-9.721153378E-1
1.703243081E0,-6.335930347E0,-1.080981135E0,-7.382900119E-1
1.708292820E0,-6.123410225E0,-5.387619734E-1,-5.284330845E-1
1.713342612E0,-5.868279457E0,-3.512756228E-1,-4.208415151E-1
1.718440945E0,-5.689847946E0,-7.901641726E-1,-4.804962575E-1
1.723490737E0,-5.591844082E0,-1.498564363E0,-6.418837309E-1
1.728540476E0,-5.484785080E0,-2.103101492E0,-8.075321317E-1
1.733590268E0,-5.268536568E0,-2.502575397E0,-9.694522023E-1
1.738640060E0,-4.943631172E0,-2.672484875E0,-1.108469009E0
1.743689799E0,-4.556407928E0,-2.736400604E0,-1.179841638E0
1.748790268E0,-4.139357090E0,-2.816828012E0,-1.171319604E0
1.753840060E0,-3.712718964E0,-2.917495251E0,-1.080239654E0
1.758889799E0,-3.268504143E0,-2.983541727E0,-9.081995487E-1
1.763939539E0,-2.800320864E0,-2.975019693E0,-7.116584182E-1
1.768989383E0,-2.341192007E0,-2.860503912E0,-5.880878568E-1
1.774039122E0,-1.950240374E0,-2.735335350E0,-6.211110950E-1
1.779137039E0,-1.581659198E0,-2.671952009E0,-7.697153091E-1
1.784186831E0,-1.203490615E0,-2.623482466E0,-9.454838037E-1
1.789236570E0,-8.434314728E-1,-2.529739380E0,-1.063195348E0
1.794286362E0,-5.020145178E-1,-2.276739359E0,-1.100479603E0
1.799336101E0,-1.669892073E-1,-1.922006607E0,-1.079706907E0
1.804385893E0,1.632424742E-1,-1.668473840E0,-1.030704856E0
1.809486674E0,4.221014977E-1,-1.622667670E0,-9.481469393E-1
1.814536414E0,6.074573994E-1,-1.596036077E0,-8.027384281E-1
1.819586258E0,7.800301313E-1,-1.446366429E0,-6.083278656E-1
1.824635997E0,9.563311934E-1,-1.171528459E0,-3.872856796E-1
1.829685789E0,1.149676561E0,-8.253178596E-1,-1.555908918E-1
1.834735529E0,1.329173446E0,-4.705851376E-1,7.024497539E-2
1.839833758E0,1.480973482E0,-1.557997763E-1,2.779713571E-1
1.844883549E0,1.623186231E0,5.512239039E-2,4.500114322E-1
1.849933289E0,1.726516724E0,1.355497837E-1,5.277756453E-1
1.854983081E0,1.805346251E0,1.781603396E-1,5.101988316E-1
1.860032820E0,1.891099930E0,2.303582430E-1,4.361629784E-1
1.865082612E0,1.997093678E0,2.809582651E-1,3.354955912E-1
1.870180685E0,2.120664120E0,3.246340752E-1,2.028702796E-1
1.875230476E0,2.279388189E0,3.858867288E-1,1.431863941E-2
1.880280216E0,2.470070362E0,4.695098996E-1,-2.269635499E-1
1.885330008E0,2.690047503E0,5.946784019E-1,-4.911489189E-1
1.890379747E0,2.911622047E0,7.699142098E-1,-7.500079274E-1
1.895429539E0,3.112957001E0,9.749774337E-1,-9.822353721E-1
1.900515789E0,3.287660122E0,1.198682785E0,-1.188896418E0
1.905565529E0,3.435199261E0,1.445823908E0,-1.374784946E0
1.910615268E0,3.550780296E0,1.723325014E0,-1.529780746E0
1.915665060E0,3.634936094E0,2.004022121E0,-1.628317595E0
1.920714851E0,3.672220230E0,2.236249685E0,-1.659210324E0
1.925764591E0,3.616293907E0,2.359287500E0,-1.625654578E0
1.930880476E0,3.374479055E0,2.311883211E0,-1.546824932E0
1.935930216E0,2.780594826E0,2.092438936E0,-1.437102914E0
1.940980008E0,1.835706234E0,1.742499828E0,-1.274650097E0
1.946029799E0,9.025354385E-1,1.377647042E0,-1.015791178E0
1.951079539E0,2.548551261E-1,1.199748158E0,-6.956794858E-1
1.956129331E0,-2.303723842E-1,1.225314379E0,-3.894162476E-1
1.961225945E0,-7.970924973E-1,1.290295482E0,-1.204371899E-1
1.966275685E0,-1.568875909E0,1.303078771E0,3.881970048E-2
1.971325476E0,-2.441327095E0,1.278577566E0,5.160286650E-2
1.976375268E0,-3.218969345E0,1.198150277E0,-4.373821989E-2
1.981425060E0,-3.900205374E0,9.824343324E-1,-1.497319490E-1
1.986474799E0,-4.485567570E0,7.454131246E-1,-1.673087925E-1
1.991572456E0,-4.657074928E0,1.084167004E0,-6.930454075E-2
1.996622247E0,-3.651998997E0,2.537186384E0,2.731776536E-1
2.001671987E0,-1.481524348E0,3.725487947E0,9.853063226E-1
2.006721779E0,2.825519741E-1,3.013359308E0,1.664944530E0
2.011771570E0,9.240245074E-2,1.239162803E0,1.609018207E0
2.016821310E0,-1.714284420E0,-1.085242033E0,7.658619881E-1
2.021944851E0,-3.127889395E0,-2.940931082E0,-4.586874694E-2
2.026994643E0,-2.637868166E0,-3.085807085E0,-3.350877762E-1
2.032044383E0,-1.124128342E0,-2.686333179E0,-6.147194505E-1
2.037094174E0,2.809540629E-1,-2.380602598E0,-1.085565925E0
2.042143966E0,1.241289258E0,-1.916147709E0,-1.442961812E0
2.047193706E0,1.814400911E0,-1.205616951E0,-1.559608102E0
2.052283341E0,2.352358580E0,5.587640218E-3,-1.602218747E0
2.057333081E0,3.542258024E0,2.267674685E0,-1.727919817E0
2.062382872E0,5.275441647E0,4.813121319E0,-2.012345314E0
2.067432612E0,6.616608620E0,6.382254601E0,-2.310619116E0
2.072482404E0,6.994244576E0,6.998509407E0,-2.314880133E0
2.077532195E0,6.677861214E0,7.045913696E0,-1.865871429E0
2.082629956E0,6.290637970E0,6.780663013E0,-1.095153332E0
2.087679695E0,6.115402222E0,6.191572189E0,-1.950056404E-1
2.092729487E0,6.003549576E0,5.041088104E0,7.280451655E-1
2.097779279E0,5.946025372E0,3.496456146E0,1.657487631E0
2.102829018E0,6.153751850E0,1.887908340E0,2.537927866E0
2.107878810E0,6.543637753E0,3.960067332E-1,3.048721790E0
2.112956518E0,6.805160522E0,-4.359640777E-1,2.949119568E0
2.118006258E0,6.864282608E0,-3.954840600E-1,2.364289761E0
2.123056049E0,6.853629589E0,-1.856271476E-1,1.454554915E0
2.128105789E0,6.764147758E0,-1.198920794E-2,4.974156320E-1
2.133155581E0,6.535116196E0,1.946719140E-1,-1.875488013E-1
2.138205372E0,6.139370441E0,3.848214447E-1,-4.879530966E-1
2.143308654E0,5.624315739E0,4.045288265E-1,-4.394836426E-1
2.148358445E0,5.094347000E0,2.074550688E-1,-1.827551126E-1
2.153408185E0,4.689547062E0,-1.252183970E-2,1.091270968E-1
2.158457976E0,4.506321430E0,-5.619764328E-2,3.488113880E-1
2.163507768E0,4.520170212E0,2.692403793E-1,4.920893013E-1
2.168557508E0,4.579824924E0,1.039425850E0,5.693209171E-1
2.173661414E0,4.559051991E0,1.943834662E0,5.858325362E-1
2.178711154E0,4.365174294E0,2.611222267E0,5.442872643E-1
2.183760945E0,3.995527983E0,2.796577930E0,5.075356364E-1
2.188810685E0,3.486864567E0,2.602167606E0,5.394935608E-1
2.193860476E0,2.888186216E0,2.326797009E0,6.939567327E-1
2.198910268E0,2.313476562E0,2.044502020E0,9.490873814E-1
2.204008549E0,1.856478930E0,1.740901947E0,1.183445454E0
2.209058289E0,1.554476738E0,1.347287059E0,1.291569591E0
2.214108081E0,1.365392327E0,9.009416103E-1,1.253752828E0
2.219157872E0,1.229571342E0,4.977393746E-1,1.120594859E0
2.224207612E0,1.082032204E0,1.898782253E-1,9.480221272E-1
2.229257404E0,8.732406497E-1,9.316062555E-3,8.201904893E-1
2.234361935E0,6.186426878E-1,5.587640218E-3,7.770473361E-1
2.239411726E0,3.736320138E-1,1.824213862E-1,7.658619881E-1
2.244461466E0,1.472635269E-1,5.451436043E-1,7.088704109E-1
2.249511258E0,-1.678705215E-2,1.029305935E0,5.698535442E-1
2.254560997E0,-5.673443526E-2,1.560872436E0,3.594639897E-1
2.259610789E0,1.676874608E-2,2.080721140E0,8.409340680E-2
2.264710424E0,1.163708791E-1,2.434388638E0,-2.370835394E-1
2.269760216E0,1.557856351E-1,2.437051535E0,-5.891531110E-1
2.274809956E0,8.601087332E-2,2.034914732E0,-9.481469393E-1
2.279859747E0,-7.271339744E-2,1.324383855E0,-1.237898588E0
2.284909539E0,-2.463513464E-1,5.515351892E-1,-1.417395473E0
2.289959331E0,-3.960208893E-1,-3.915342689E-2,-1.499953389E0
2.295058081E0,-5.355703235E-1,-3.363619447E-1,-1.501551270E0
2.300107872E0,-7.060124874E-1,-4.753788412E-1,-1.454147100E0
2.305157612E0,-9.584799409E-1,-6.841704845E-1,-1.375850201E0
2.310207404E0,-1.290309548E0,-1.047957897E0,-1.253877521E0
2.315257143E0,-1.686587572E0,-1.492705464E0,-1.048814297E0
2.320306935E0,-2.104703903E0,-1.880461335E0,-7.611932158E-1
2.325404956E0,-2.455708027E0,-2.129200220E0,-4.155151844E-1
2.330454747E0,-2.706044912E0,-2.284196138E0,-8.262033015E-2
2.335504487E0,-2.885541916E0,-2.343318224E0,1.789018512E-1
2.340554279E0,-3.026156664E0,-2.280467749E0,3.562682271E-1
2.345604018E0,-3.126824141E0,-2.115351915E0,4.691861570E-1
2.350653810E0,-3.177956820E0,-1.868210793E0,5.677230358E-1
2.355759226E0,-3.200859785E0,-1.624265552E0,6.715862155E-1
2.360808966E0,-3.232285023E0,-1.464475989E0,7.770473361E-1
2.365858758E0,-3.314842939E0,-1.391505361E0,8.739863038E-1
2.370908497E0,-3.474632502E0,-1.344101191E0,9.554789662E-1
2.375958289E0,-3.727100134E0,-1.265804291E0,1.006611705E0
2.381008081E0,-4.069582462E0,-1.142766356E0,9.975568652E-1
2.386105789E0,-4.482904434E0,-1.135309458E0,9.224557877E-1
2.391162143E0,-4.982512951E0,-1.375526428E0,8.122010231E-1
2.396218497E0,-5.547102928E0,-1.720139146E0,7.418936491E-1
2.401274904E0,-6.039787292E0,-2.089785576E0,7.578725815E-1
2.406331258E0,-6.319418430E0,-2.454638243E0,8.319084048E-1
2.411387664E0,-6.321549416E0,-2.613362789E0,8.329736590E-1
2.416451883E0,-6.099442005E0,-2.389657259E0,7.259146571E-1
2.421508289E0,-5.779862881E0,-1.956094980E0,5.900935531E-1
2.426564643E0,-5.543907166E0,-1.532120109E0,4.691861570E-1
2.431621049E0,-5.465077400E0,-1.237042189E0,3.312345445E-1
2.436677404E0,-5.530591011E0,-1.087372661E0,2.401544899E-1
2.441733810E0,-5.714881420E0,-9.382358193E-1,2.300345004E-1
2.446800789E0,-5.945511341E0,-6.942904592E-1,2.492092401E-1
2.451857143E0,-6.127139091E0,-3.289051056E-1,2.992766201E-1
2.456913497E0,-6.121280193E0,2.271624506E-1,3.898240328E-1
2.461969904E0,-5.867747307E0,8.364931941E-1,4.633271992E-1
2.467026258E0,-5.548168182E0,1.172051191E0,4.169882238E-1
2.472082664E0,-5.317006111E0,1.023979545E0,2.310997546E-1
2.477147820E0,-5.198761463E0,4.854888320E-1,-4.693401232E-2
2.482204174E0,-5.115138531E0,-2.255745381E-1,-3.297615051E-1
2.487260529E0,-4.971860409E0,-1.044762135E0,-5.918162465E-1
2.492316935E0,-4.739633083E0,-1.681257129E0,-7.771721482E-1
2.497373289E0,-4.431239605E0,-2.116949797E0,-8.826332092E-1
2.502429695E0,-4.124443531E0,-2.434931040E0,-9.071343541E-1
2.507496362E0,-3.835224390E0,-2.700181484E0,-8.085973859E-1
2.512552716E0,-3.504459858E0,-2.965432167E0,-6.291005015E-1
2.517609070E0,-3.123628378E0,-3.125754356E0,-4.219067693E-1
2.522665476E0,-2.724154472E0,-3.166766882E0,-2.461382896E-1
2.527721831E0,-2.319886923E0,-3.173158646E0,-1.491993070E-1
2.532778237E0,-1.942783475E0,-3.166766882E0,-1.779614240E-1
2.537843497E0,-1.619475961E0,-3.033608913E0,-2.940751612E-1
2.542899851E0,-1.331854820E0,-2.740661621E0,-4.240373075E-1
2.547956206E0,-1.046896815E0,-2.393385649E0,-5.417488813E-1
2.553012612E0,-7.661998868E-1,-2.077535152E0,-6.179152727E-1
2.558068966E0,-4.807093143E-1,-1.837850809E0,-6.498731375E-1
2.563125372E0,-1.978818476E-1,-1.667941332E0,-6.376225948E-1
2.568192820E0,4.233507067E-2,-1.485781312E0,-5.859573483E-1
2.573249174E0,2.473983020E-1,-1.206149578E0,-4.996709824E-1
2.578305529E0,4.455372989E-1,-8.327747583E-1,-3.792962134E-1
2.583361935E0,6.671121716E-1,-4.407577813E-1,-2.264309078E-1
2.588418289E0,9.115900993E-1,-1.131892428E-1,-3.095505945E-2
2.593474695E0,1.155535460E0,1.041245088E-1,1.895544827E-1
2.598541987E0,1.367522955E0,2.447392941E-1,3.594639897E-1
2.603598341E0,1.547019839E0,3.368845880E-1,4.723819494E-1
2.608654695E0,1.699885130E0,4.146488309E-1,5.224493742E-1
2.613711101E0,1.841565251E0,5.142509341E-1,5.000787973E-1
2.618767456E0,1.974723220E0,6.665836573E-1,4.010092914E-1
2.623823810E0,2.112674713E0,8.753752708E-1,2.545355558E-1
2.628865737E0,2.272996664E0,1.128375411E0,8.196288347E-2
2.633922143E0,2.447700024E0,1.388832331E0,-1.364161521E-1
2.638978497E0,2.623468399E0,1.633310437E0,-3.931446671E-1
2.644034851E0,2.792312622E0,1.861809373E0,-6.786352992E-1
2.649091258E0,2.959026337E0,2.069535732E0,-9.556037784E-1
2.654147612E0,3.126805544E0,2.247967482E0,-1.205940604E0
2.659214174E0,3.288192987E0,2.379527330E0,-1.431776524E0
2.664270581E0,3.415491819E0,2.457291603E0,-1.632045984E0
2.669326935E0,3.495919228E0,2.506826401E0,-1.792900920E0
2.674383289E0,3.537464380E0,2.539316893E0,-1.896764040E0
2.679439695E0,3.514561415E0,2.544110775E0,-1.926058769E0
2.684496049E0,3.358500242E0,2.485521078E0,-1.885578752E0
2.689570945E0,2.944112539E0,2.314546347E0,-1.777987123E0
2.694627351E0,2.170198679E0,2.049295664E0,-1.613403916E0
2.699683654E0,1.137958646E0,1.749956608E0,-1.353479624E0
2.704740060E0,1.019898206E-1,1.540632486E0,-9.785069227E-1
2.709796466E0,-8.524862528E-1,1.607211351E0,-5.907510519E-1
2.714852820E0,-1.765417099E0,1.949160933E0,-3.164457083E-1
2.719910320E0,-2.644259691E0,2.264478922E0,-1.934077442E-1
2.724966726E0,-3.478893757E0,2.344906330E0,-1.428077221E-1
2.730023029E0,-4.286363602E0,2.184051514E0,-1.374814212E-1
2.735079435E0,-5.028319359E0,1.841036677E0,-1.752982587E-1
2.740135841E0,-5.012340546E0,1.838373542E0,4.041759670E-2
2.745192195E0,-3.392074585E0,2.089242935E0,8.308430910E-1
2.750282664E0,-1.108149529E0,1.398952365E0,1.735251784E0
2.755339018E0,-2.447534353E-1,-5.087132752E-2,1.725664616E0
2.760395372E0,-1.057549357E0,-1.411745429E0,7.653294206E-1
2.765451779E0,-1.862888694E0,-2.259695292E0,1.911232434E-2
2.770508133E0,-1.751035929E0,-2.221878290E0,-1.651782691E-1
2.775564539E0,-1.087909460E0,-1.894309759E0,-1.939403862E-1
2.780627508E0,-2.202523798E-1,-1.611482263E0,-3.047277629E-1
2.785683862E0,6.553942561E-1,-1.263141155E0,-4.858225882E-1
2.790740216E0,1.198678613E0,-1.032511592E0,-5.939468145E-1
2.795796622E0,1.420786023E0,-9.121368527E-1,-6.461447477E-1
2.800852976E0,1.878316760E0,-1.944605261E-2,-8.325658441E-1
2.805909383E0,3.224276781E0,2.471672773E0,-1.288498521E0
2.810977820E0,5.028833389E0,5.087426662E0,-1.917536736E0
2.816034174E0,6.398762226E0,6.677865505E0,-2.381458998E0
2.821090529E0,6.850433826E0,7.384667397E0,-2.346837759E0
2.826146935E0,6.552159786E0,7.470953941E0,-1.767334580E0
2.831203289E0,6.161208153E0,7.108764172E0,-8.762416840E-1
2.836259695E0,5.903947353E0,6.387048244E0,1.219102591E-1
2.841304695E0,5.649349213E0,5.203007698E0,1.152552724E0
2.846361101E0,5.462395668E0,3.609906912E0,2.193315268E0
2.851417456E0,5.476243973E0,1.804817677E0,3.136605978E0
2.856473810E0,5.650414944E0,-4.234921932E-2,3.569102764E0
2.861530216E0,5.811269283E0,-1.485781312E0,3.202119589E0
2.866586570E0,5.787301064E0,-1.853297114E0,2.303037167E0
2.871672404E0,5.628044128E0,-1.313741088E0,1.260144472E0
2.876728758E0,5.507669449E0,-6.580715775E-1,3.685187399E-1
2.881785112E0,5.460265160E0,-2.213134766E-1,-1.673087925E-1
2.886841518E0,5.363858700E0,1.754971743E-1,-3.505341113E-1
2.891897872E0,5.146545410E0,5.430130959E-1,-2.626498938E-1
2.896954279E0,4.878631115E0,7.044004798E-1,-8.051894605E-3
2.902013862E0,4.698069096E0,6.708447337E-1,2.880913615E-1
2.907070268E0,4.667176723E0,6.245056987E-1,5.677230358E-1
2.912126622E0,4.737483501E0,8.434174061E-1,8.084726334E-1
2.917182976E0,4.769441605E0,1.425051332E0,9.911652803E-1
2.922239383E0,4.670905113E0,2.173398972E0,1.098757029E0
2.927295737E0,4.434416294E0,2.757695913E0,1.143498063E0
2.932398966E0,4.085542679E0,2.934529543E0,1.138704300E0
2.937455320E0,3.663698196E0,2.719878912E0,1.133910656E0
2.942511726E0,3.164622068E0,2.340112686E0,1.173858047E0
2.947568081E0,2.571270466E0,2.062611341E0,1.263872862E0
2.952624435E0,1.986441016E0,1.857548356E0,1.364007592E0
2.957680841E0,1.535834551E0,1.627451420E0,1.414607525E0
2.962698549E0,1.269518733E0,1.341428161E0,1.367735982E0
2.967754904E0,1.120914459E0,1.012794375E0,1.240437031E0
2.972811258E0,1.036758542E0,7.251731157E-1,1.084908605E0
2.977867664E0,9.664512277E-1,4.945436120E-1,9.293799996E-1
2.982924018E0,8.572616577E-1,3.209056556E-1,8.153967857E-1
2.987980424E0,7.113205791E-1,2.532613873E-1,7.642641664E-1
2.993113549E0,5.573900342E-1,2.958719730E-1,7.312409878E-1
2.998169904E0,3.933393955E-1,5.057288408E-1,6.955546141E-1
3.003226258E0,2.298214585E-1,9.089310765E-1,6.247146130E-1
3.008282664E0,1.019898206E-1,1.443693519E0,4.825019240E-1
3.013339018E0,2.422559075E-2,1.997630358E0,2.625250518E-1
3.018395424E0,-4.536524415E-3,2.377396822E0,-3.255295381E-2
3.023410268E0,-3.969021887E-2,2.380592585E0,-3.862204552E-1
3.028466622E0,-1.440860480E-1,1.961944222E0,-7.755742669E-1
3.033522976E0,-3.358334899E-1,1.317992330E0,-1.103675365E0
3.038579383E0,-5.872356296E-1,6.724426150E-1,-1.302347064E0
3.043635737E0,-8.333114982E-1,8.814556152E-2,-1.387568116E0
3.048692143E0,-1.042635679E0,-4.109303653E-1,-1.402481794E0
3.053760008E0,-1.202957988E0,-7.864357233E-1,-1.355077505E0
3.058816362E0,-1.299896955E0,-1.080981135E0,-1.249616385E0
3.063872716E0,-1.400564313E0,-1.400027514E0,-1.088228941E0
3.068929122E0,-1.604562283E0,-1.775532842E0,-8.746438026E-1
3.073985476E0,-1.956631780E0,-2.143048763E0,-6.227089763E-1
3.079041883E0,-2.398183823E0,-2.378472090E0,-3.462730646E-1
3.084111726E0,-2.776885033E0,-2.416288853E0,-6.131506711E-2
3.089168081E0,-3.009644985E0,-2.288989782E0,1.852934211E-1
3.094224435E0,-3.099659920E0,-2.062088728E0,3.669208586E-1
3.099280841E0,-3.087941885E0,-1.822937131E0,4.883608818E-1
3.104337195E0,-3.047461987E0,-1.651962280E0,5.794409513E-1
3.109393549E0,-3.059179783E0,-1.565675974E0,6.657272577E-1
3.114454851E0,-3.184348345E0,-1.503358006E0,7.733188868E-1
3.119511206E0,-3.389944077E0,-1.417071700E0,8.995526433E-1
3.124567560E0,-3.648803234E0,-1.265271664E0,1.002350569E0
3.129623966E0,-3.958794832E0,-1.092166424E0,1.034841180E0
3.134680320E0,-4.324713230E0,-1.043696761E0,9.890347719E-1
3.139736674E0,-4.790233135E0,-1.231183290E0,9.032810330E-1
3.144804174E0,-5.358551025E0,-1.622134924E0,8.271147013E-1
3.149860529E0,-5.914086342E0,-2.104699373E0,8.212557435E-1
3.154916883E0,-6.254970551E0,-2.636265755E0,8.596052527E-1
3.159973289E0,-6.281069756E0,-3.024554253E0,8.745189309E-1
3.165029643E0,-6.085060596E0,-2.874352217E0,8.564094305E-1
3.170085997E0,-5.834723949E0,-2.206964493E0,7.962220311E-1
3.175151101E0,-5.591311455E0,-1.447964430E0,6.497483253E-1
3.180207456E0,-5.368138313E0,-9.451600313E-1,4.052703381E-1
3.185263810E0,-5.207816124E0,-7.667284012E-1,1.469439417E-1
3.190320216E0,-5.204088211E0,-6.878988743E-1,-4.853190854E-2
3.195376570E0,-5.356420517E0,-5.195872784E-1,-1.193719283E-1
3.200432976E0,-5.580658436E0,-2.095955908E-1,-4.160769284E-2
3.205500268E0,-5.714349270E0,2.910782695E-1,1.080618352E-1
3.210556622E0,-5.608887672E0,8.759079576E-1,2.300345004E-1
3.215612976E0,-5.355355263E0,1.248750210E0,2.444155514E-1
3.220669331E0,-5.157216549E0,1.252478600E0,1.533355266E-1
3.225725737E0,-5.059744835E0,8.700489998E-1,2.068109345E-3
3.230782143E0,-5.003818512E0,1.920087636E-1,-2.120498568E-1
3.235848081E0,-4.924988747E0,-5.835030675E-1,-4.693109989E-1
3.240904435E0,-4.783841610E0,-1.261543274E0,-6.999405622E-1
3.245960789E0,-4.514862537E0,-1.749966621E0,-8.597300649E-1
3.251017195E0,-4.214457989E0,-2.181930780E0,-9.603974223E-1
3.256073549E0,-3.932163239E0,-2.641592264E0,-9.817027450E-1
3.261129956E0,-3.609921217E0,-3.003249168E0,-8.522732258E-1
3.266194956E0,-3.226958990E0,-3.234944105E0,-6.104584336E-1
3.271251310E0,-2.804581642E0,-3.353188038E0,-3.553278148E-1
3.276307664E0,-2.348116398E0,-3.347329140E0,-1.731677353E-1
3.281364070E0,-1.920945525E0,-3.272228241E0,-1.177740246E-1
3.286420424E0,-1.557690620E0,-3.163571119E0,-1.960709095E-1
3.291476831E0,-1.210947394E0,-2.967562675E0,-3.579909503E-1
3.296543810E0,-8.599430919E-1,-2.687398434E0,-5.055299401E-1
3.301600164E0,-5.041450262E-1,-2.388059378E0,-5.971426368E-1
3.306656518E0,-1.627281457E-1,-2.085524559E0,-6.493405104E-1
3.311712924E0,1.536551118E-1,-1.795240283E0,-6.642541885E-1
3.316769279E0,4.503310025E-1,-1.529457092E0,-6.477426887E-1
3.321825685E0,7.193101048E-1,-1.242901087E0,-6.147194505E-1
3.326892247E0,9.600595832E-1,-9.073431492E-1,-5.785005093E-1
3.331948601E0,1.168851256E0,-5.318377614E-1,-5.268352628E-1
3.337004956E0,1.361663938E0,-1.941492707E-1,-4.325594008E-1
3.342061362E0,1.525714517E0,4.926344007E-2,-2.759656608E-1
3.347117716E0,1.640762925E0,2.031940222E-1,-8.741401881E-2
3.352174070E0,1.729712605E0,2.740340531E-1,8.888708800E-2
3.357240581E0,1.815466166E0,2.953393161E-1,2.183165997E-1
3.362296935E0,1.903883100E0,3.246340752E-1,2.625250518E-1
3.367353289E0,1.985908389E0,4.066593349E-1,2.342955470E-1
3.372409695E0,2.060476542E0,5.494046211E-1,1.485418379E-1
3.377466049E0,2.144099951E0,7.347605228E-1,2.710180171E-2
3.382522456E0,2.250626326E0,9.707164168E-1,-1.273614019E-1
3.387590893E0,2.378457785E0,1.241293311E0,-3.366856873E-1
3.392648549E0,2.519605160E0,1.505478740E0,-6.072626114E-1
3.397706258E0,2.675666332E0,1.716400862E0,-8.868942857E-1
3.402763914E0,2.851967335E0,1.879386187E0,-1.130306959E0
3.407821622E0,3.045845270E0,2.000826359E0,-1.335370183E0
3.412879279E0,3.228538036E0,2.069003105E0,-1.512736559E0
3.417937820E0,3.391523361E0,2.111613512E0,-1.652286172E0
3.422995476E0,3.523083210E0,2.139843225E0,-1.734843969E0
3.428053185E0,3.610435009E0,2.128657818E0,-1.751888156E0
3.433110841E0,3.629609585E0,2.048230648E0,-1.701820731E0
3.438168549E0,3.505506516E0,1.857548356E0,-1.596359730E0
3.443226206E0,3.122544289E0,1.522522926E0,-1.461603880E0
3.448284383E0,2.400828362E0,1.104939699E0,-1.317260742E0
3.453342039E0,1.382436514E0,7.049331665E-1,-1.140426993E0
3.458399747E0,3.081183136E-1,4.854888320E-1,-8.911553025E-1
3.463457404E0,-6.069429517E-1,6.420825720E-1,-6.109910011E-1
3.468515112E0,-1.386715889E0,1.123049140E0,-3.979383409E-1
3.473572768E0,-2.160097361E0,1.647691369E0,-3.073909581E-1
3.478630424E0,-2.955316544E0,2.046099901E0,-3.116520047E-1
3.483688081E0,-3.776102304E0,2.295371771E0,-3.318920135E-1
3.488745789E0,-4.634171963E0,2.341177940E0,-3.745025396E-1
3.493803445E0,-5.306353092E0,2.212813616E0,-2.940751612E-1
3.498861154E0,-4.764666557E0,2.123864174E0,4.942198694E-1
3.503918810E0,-2.736404896E0,1.543828249E0,1.919009924E0
3.508980737E0,-8.450294137E-1,1.813561171E-1,2.805841684E0
3.514038393E0,-8.897705078E-1,-1.161408424E0,2.224207878E0
3.519096101E0,-2.218154192E0,-2.334263563E0,9.432284236E-1
3.524153758E0,-3.010710478E0,-3.176354408E0,1.634555310E-1
3.529211466E0,-2.605910063E0,-3.185409069E0,-5.598875135E-2
3.534269122E0,-1.483122230E0,-2.759303808E0,-2.067235410E-1
3.539327872E0,-1.819029003E-1,-2.088187695E0,-5.710436702E-1
3.544385529E0,9.424827695E-1,-1.391505361E0,-1.040292263E0
3.549443185E0,1.606674552E0,-9.584758282E-1,-1.338033319E0
3.554500893E0,2.010409117E0,-3.198503554E-1,-1.489300728E0
3.559558549E0,2.761952639E0,1.476716638E0,-1.702886105E0
3.564616258E0,4.368902683E0,4.277294159E0,-2.148166180E0
3.569677039E0,6.014202118E0,6.596372604E0,-2.581728458E0
3.574734695E0,6.862151623E0,7.850720406E0,-2.575336933E0
3.579792404E0,6.755093098E0,8.250727654E0,-2.053357840E0
3.584850060E0,6.048822880E0,7.909842491E0,-1.208071113E0
3.589907768E0,5.308997631E0,6.964420795E0,-2.440077662E-1
3.594965424E0,4.781692028E0,5.543359280E0,8.292452097E-1
3.600024904E0,4.505788803E0,3.711106777E0,2.014350891E0
3.605082560E0,4.493538380E0,1.504946113E0,3.117431164E0
3.610140268E0,4.721504688E0,-8.029473424E-1,3.560048103E0
3.615197924E0,4.962786674E0,-2.467954159E0,3.066831112E0
3.620255581E0,5.032029152E0,-2.812566757E0,2.103300333E0
3.625313289E0,5.077302933E0,-2.196844578E0,1.067864299E0
3.630371779E0,5.283431530E0,-1.175789595E0,2.715797722E-1
3.635429435E0,5.597683907E0,-2.956605516E-2,-1.918098480E-1
3.640487143E0,5.868793964E0,1.042621732E0,-4.144499302E-1
3.645544799E0,5.974787235E0,2.018935680E0,-4.267004430E-1
3.650602508E0,5.856543064E0,2.712954998E0,-2.338877618E-1
3.655660164E0,5.519919872E0,2.848775864E0,9.208288044E-2
3.660719226E0,5.069846153E0,2.527599096E0,4.851651192E-1
3.665776883E0,4.651197433E0,2.004554749E0,8.761168122E-1
3.670834591E0,4.351858139E0,1.525718689E0,1.199957013E0
3.675892247E0,4.176090240E0,1.274849176E0,1.407683372E0
3.680949956E0,4.029616356E0,1.200280786E0,1.498763442E0
3.686007612E0,3.830411911E0,1.215194464E0,1.471599102E0
3.691063966E0,3.553443432E0,1.259402871E0,1.378921270E0
3.696121674E0,3.210961103E0,1.243956566E0,1.280384421E0
3.701179331E0,2.786453724E0,1.282305956E0,1.229251742E0
3.706237039E0,2.302291393E0,1.382440805E0,1.238306403E0
3.711294695E0,1.884708405E0,1.380310297E0,1.271329641E0
3.716352351E0,1.609337807E0,1.198682785E0,1.272394896E0
3.721411883E0,1.442624092E0,8.849626780E-1,1.199957013E0
3.726469591E0,1.323314428E0,5.217078328E-1,1.056679130E0
3.731527247E0,1.198145986E0,1.616487503E-1,8.904978633E-1
3.736584904E0,1.034628034E0,-1.376902908E-1,7.546767592E-1
3.741642612E0,8.514027596E-1,-3.118608892E-1,6.982178092E-1
3.746700268E0,6.846889853E-1,-2.862945497E-1,6.939567327E-1
3.751780529E0,5.557921529E-1,-5.619764328E-2,6.875652075E-1
3.756838185E0,4.487330914E-1,3.155793250E-1,6.231167316E-1
3.761895893E0,3.624467552E-1,6.974763274E-1,4.883608818E-1
3.766953549E0,2.905414402E-1,1.021849155E0,3.014071584E-1
3.772011258E0,2.212993503E-1,1.284436464E0,7.077760994E-2
3.777068914E0,1.041203439E-1,1.387234449E0,-2.147130072E-1
3.782138706E0,-1.073344573E-1,1.178975463E0,-5.492057204E-1
3.787196414E0,-3.864335120E-1,6.623226404E-1,-8.805027604E-1
3.792254070E0,-6.500861645E-1,3.914344311E-2,-1.133502841E0
3.797311779E0,-8.934988976E-1,-4.913577735E-1,-1.275715470E0
3.802369435E0,-1.120399952E0,-7.986863256E-1,-1.321521759E0
3.807427091E0,-1.280189514E0,-8.828421235E-1,-1.294890165E0
3.812511206E0,-1.355823159E0,-8.471557498E-1,-1.215528011E0
3.817568862E0,-1.446370721E0,-8.546126485E-1,-1.102610111E0
3.822626570E0,-1.647172809E0,-1.007477999E0,-9.518753290E-1
3.827684226E0,-1.955566645E0,-1.232781172E0,-7.500079274E-1
3.832741935E0,-2.292722702E0,-1.393103242E0,-4.874204993E-1
3.837799591E0,-2.596855402E0,-1.495901227E0,-2.035277635E-1
3.842806518E0,-2.863171339E0,-1.572067499E0,4.521128163E-2
3.847864174E0,-3.103920937E0,-1.600829601E0,2.438829243E-1
3.852921831E0,-3.304190397E0,-1.574730754E0,3.797040284E-1
3.857979539E0,-3.443207264E0,-1.501227617E0,4.707840383E-1
3.863037247E0,-3.504992723E0,-1.380852818E0,5.490809679E-1
3.868094904E0,-3.532156944E0,-1.212008476E0,6.247146130E-1
3.873164279E0,-3.622704268E0,-1.030381083E0,6.662598848E-1
3.878221987E0,-3.832028627E0,-9.712589979E-1,6.598683000E-1
3.883279643E0,-4.183032990E0,-1.168332696E0,6.358999014E-1
3.888337351E0,-4.660803318E0,-1.602427483E0,6.417588592E-1
3.893395008E0,-5.192902565E0,-2.184594154E0,7.402957082E-1
3.898452664E0,-5.629127979E0,-2.734270096E0,8.920958042E-1
3.903504851E0,-5.831528187E0,-3.084209204E0,9.400326014E-1
3.908562508E0,-5.823538780E0,-3.100188017E0,8.457567692E-1
3.913620216E0,-5.691978931E0,-2.809903622E0,7.408283353E-1
3.918677924E0,-5.505024433E0,-2.345981598E0,6.806409359E-1
3.923735581E0,-5.355887890E0,-1.756358147E0,6.561399102E-1
3.928793237E0,-5.302092075E0,-1.164071679E0,6.188556552E-1
3.933848289E0,-5.335115433E0,-7.400968075E-1,5.224493742E-1
3.938905997E0,-5.445370197E0,-5.302398801E-1,4.340324402E-1
3.943963654E0,-5.585452557E0,-3.933535218E-1,4.100640416E-1
3.949021362E0,-5.669075489E0,-1.696482152E-1,4.425545931E-1
3.954079018E0,-5.612616539E0,1.930740178E-1,4.963503778E-1
3.959136674E0,-5.378258705E0,6.985415220E-1,5.560051203E-1
3.964196935E0,-5.013405800E0,1.192291260E0,6.055398583E-1
3.969254591E0,-4.659738541E0,1.248217583E0,5.267103910E-1
3.974312299E0,-4.440826416E0,6.383541822E-1,2.497418672E-1
3.979369956E0,-4.397683144E0,-3.789725006E-1,-1.316224635E-1
3.984427664E0,-4.466925621E0,-1.430920243E0,-4.980731010E-1
3.989485320E0,-4.502079487E0,-2.250107765E0,-7.814332247E-1
3.994544539E0,-4.436565876E0,-2.706040621E0,-9.055364132E-1
3.999602247E0,-4.255470753E0,-2.896190166E0,-8.890248537E-1
4.004659904E0,-3.988089561E0,-3.089535475E0,-8.325658441E-1
4.009717560E0,-3.683424234E0,-3.259444952E0,-7.127236724E-1
4.014775268E0,-3.312179804E0,-3.314838648E0,-4.964752197E-1
4.019832924E0,-2.894063950E0,-3.265303850E0,-2.312245965E-1
4.024891466E0,-2.453044891E0,-3.222693205E0,-2.562874183E-2
4.029949174E0,-2.006699324E0,-3.189670324E0,3.136285394E-2
4.035006831E0,-1.595507503E0,-3.134809256E0,-3.734663874E-2
4.040064487E0,-1.235448480E0,-3.095394373E0,-1.603845805E-1
4.045122195E0,-9.142715335E-1,-2.988867998E0,-3.068583310E-1
4.050179851E0,-6.074756384E-1,-2.788598537E0,-4.709088802E-1
4.055241101E0,-3.182566464E-1,-2.559566736E0,-6.189805269E-1
4.060298758E0,-3.383126855E-2,-2.312958479E0,-7.010057569E-1
4.065356466E0,2.442024946E-1,-2.012021303E0,-7.260394692E-1
4.070414122E0,4.956046641E-1,-1.650364399E0,-7.489426732E-1
4.075471831E0,7.134511471E-1,-1.282315969E0,-7.702479362E-1
4.080529487E0,8.865564466E-1,-9.286484718E-1,-7.478774190E-1
4.085590320E0,1.026638627E0,-6.048083901E-1,-6.663847566E-1
4.090647976E0,1.161926985E0,-3.523409069E-1,-5.321615338E-1
4.095705685E0,1.299878716E0,-2.048019022E-1,-3.697088361E-1
4.100763341E0,1.432504058E0,-1.312987208E-1,-1.992667019E-1
4.105821049E0,1.552878857E0,-1.115913466E-1,-3.734663874E-2
4.110878706E0,1.636502028E0,-1.009387150E-1,9.421341121E-2
4.115935164E0,1.696156740E0,-5.619764328E-2,1.751734316E-1
4.120992820E0,1.749419928E0,1.038132608E-2,1.964786947E-1
4.126050529E0,1.812803149E0,1.153097749E-1,1.512050033E-1
4.131108237E0,1.906013608E0,2.585877180E-1,5.053760111E-2
4.136165893E0,2.047160864E0,4.306277931E-1,-9.913191944E-2
4.141223549E0,2.216005087E0,5.872215629E-1,-2.818246186E-1
4.146284904E0,2.386447191E0,6.980089545E-1,-4.730394185E-1
4.151342560E0,2.544638872E0,7.629899979E-1,-6.541342139E-1
4.156400268E0,2.678862095E0,7.960131764E-1,-8.219131827E-1
4.161457924E0,2.778464079E0,7.981437445E-1,-9.710500836E-1
4.166515633E0,2.823205471E0,7.832300067E-1,-1.091424823E0
4.171573289E0,2.811487436E0,7.789689898E-1,-1.177178621E0
4.176630997E0,2.751300097E0,8.231773973E-1,-1.228843808E0
4.181688654E0,2.632523060E0,9.323669076E-1,-1.234170198E0
4.186746362E0,2.347032547E0,1.083101749E0,-1.183037519E0
4.191804070E0,1.644491434E0,1.170453310E0,-1.070652246E0
4.196861726E0,4.327541292E-1,1.086297631E0,-8.980795741E-1
4.201919383E0,-7.432967424E-1,8.247753382E-1,-6.472100019E-1
4.206980112E0,-1.357421160E0,5.691120625E-1,-3.313593566E-1
4.212037820E0,-1.561419010E0,4.434109330E-1,-2.349821664E-2
4.217095476E0,-1.823473930E0,2.617835104E-1,2.678513527E-1
4.222153185E0,-2.400314331E0,-4.532363266E-3,4.819693267E-1
4.227210841E0,-3.206186295E0,-1.978776902E-1,5.096662045E-1
4.232268497E0,-4.076506615E0,-2.793703377E-1,4.244450927E-1
4.237329018E0,-4.913271427E0,-2.676524520E-1,4.414893091E-1
4.242386726E0,-5.271199226E0,3.731035590E-1,7.179251909E-1
4.247444383E0,-4.336431026E0,2.269805193E0,1.207413793E0
4.252502039E0,-2.159032106E0,4.338013649E0,1.692108750E0
4.257559747E0,-5.601787008E-3,4.546273232E0,2.042047739E0
4.262617404E0,4.716362655E-1,3.225879192E0,2.069211960E0
4.267675372E0,-1.080452561E0,1.164061785E0,1.583984494E0
4.272733029E0,-3.303658009E0,-1.444768548E0,7.749167681E-1
4.277790737E0,-4.103670597E0,-2.910038471E0,5.320075899E-2
4.282848445E0,-2.962240934E0,-3.001118660E0,-4.176456928E-1
4.287906101E0,-1.050092578E0,-2.667158365E0,-8.261742592E-1
4.292963758E0,4.545920491E-1,-2.098307848E0,-1.244290113E0
4.298024956E0,1.169916511E0,-1.492705464E0,-1.523921847E0
4.303082664E0,1.429840803E0,-9.638021588E-1,-1.569728136E0
4.308140320E0,1.594956636E0,-1.265050322E-1,-1.518595457E0
4.313198029E0,1.874055743E0,1.120918512E0,-1.490898728E0
4.318255685E0,2.511083126E0,2.563285589E0,-1.521258712E0
4.323313341E0,3.336662292E0,3.775022507E0,-1.519660711E0
4.328373341E0,3.965700388E0,4.467976093E0,-1.418993354E0
4.333431049E0,4.168632984E0,4.735357285E0,-1.182504892E0
4.338488706E0,3.935873032E0,4.711388588E0,-7.878248096E-1
4.343546414E0,3.596054077E0,4.576100349E0,-2.935425341E-1
4.348604070E0,3.488994837E0,4.464247704E0,2.167187035E-1
4.353661726E0,3.611500263E0,4.139342308E0,7.094030976E-1
4.358722976E0,3.864500284E0,3.343058109E0,1.190369606E0
4.363780685E0,4.181949139E0,2.039708376E0,1.615409851E0
4.368838341E0,4.579292297E0,5.723078251E-1,1.972805619E0
4.373896049E0,5.040551186E0,-4.721830189E-1,2.168281555E0
4.378953706E0,5.388359547E0,-8.040126562E-1,2.035123348E0
4.384011362E0,5.571052551E0,-5.270440578E-1,1.516340256E0
4.389067247E0,5.723384857E0,1.451371610E-1,7.674599290E-1
4.394125112E0,5.942829609E0,8.519394994E-1,-8.051894605E-3
4.399183029E0,6.179317951E0,1.400017738E0,-6.360247135E-1
4.404240893E0,6.289040089E0,1.825590491E0,-1.034965754E0
4.409298862E0,6.162273884E0,2.070600986E0,-1.230441809E0
4.414356726E0,5.799018860E0,1.998162985E0,-1.258671284E0
4.419416414E0,5.295681953E0,1.634375572E0,-1.141492128E0
4.424474331E0,4.792877674E0,1.155007005E0,-9.156564474E-1
4.429532195E0,4.410980701E0,7.512720823E-1,-6.179152727E-1
4.434590164E0,4.199525833E0,6.452783346E-1,-3.047277629E-1
4.439648029E0,4.162774086E0,9.318342805E-1,-3.258208279E-3
4.444705945E0,4.237342358E0,1.486836672E0,2.779713571E-1
4.449765008E0,4.313508987E0,2.082319021E0,5.070030093E-1
4.454822924E0,4.315106869E0,2.536121130E0,6.694557071E-1
4.459880789E0,4.194732189E0,2.769413948E0,7.967547178E-1
4.464938706E0,3.923089981E0,2.790719032E0,9.293799996E-1
4.469996622E0,3.516691923E0,2.599504232E0,1.066799045E0
4.475054539E0,3.015485287E0,2.287914753E0,1.191967487E0
4.480116570E0,2.466341972E0,2.030120850E0,1.306483269E0
4.485174487E0,1.976321101E0,1.814937711E0,1.401824474E0
4.490232404E0,1.617859840E0,1.600819826E0,1.451359153E0
4.495290268E0,1.401078820E0,1.379244924E0,1.423129678E0
4.500348237E0,1.289226055E0,1.158735514E0,1.332049727E0
4.505406101E0,1.238093376E0,9.685858488E-1,1.219664335E0
4.510469487E0,1.191754460E0,8.402215838E-1,1.116333723E0
4.515527351E0,1.120381713E0,7.645878792E-1,1.050820112E0
4.520585268E0,1.017583847E0,7.427499890E-1,1.038036823E0
4.525643133E0,8.950785995E-1,7.470110059E-1,1.034841180E0
4.530701101E0,7.576595545E-1,7.315647602E-1,9.980894923E-1
4.535758966E0,5.930763483E-1,6.910846829E-1,9.277821183E-1
4.540809435E0,3.949372768E-1,6.676489115E-1,8.345715404E-1
4.545867299E0,1.781561673E-1,7.070636153E-1,6.971525550E-1
4.550925216E0,-3.223337606E-2,8.130573630E-1,4.974156320E-1
4.555983081E0,-2.239807993E-1,9.440848231E-1,2.241755575E-1
4.561041049E0,-3.986840546E-1,9.952175021E-1,-9.114244580E-2
4.566098914E0,-5.494187474E-1,9.020068645E-1,-3.915467560E-1
4.571155841E0,-6.756525040E-1,6.548657417E-1,-6.338942051E-1
4.576213706E0,-7.864398956E-1,2.937414348E-1,-7.926184535E-1
4.581271570E0,-8.972273469E-1,-8.016607910E-2,-8.538711667E-1
4.586329487E0,-1.001623154E0,-3.821682632E-1,-8.267068863E-1
4.591387404E0,-1.118269444E0,-6.234504580E-1,-7.372247577E-1
4.596445320E0,-1.291907430E0,-8.492863178E-1,-6.093931794E-1
4.601504487E0,-1.535320163E0,-1.104416847E0,-4.410814941E-1
4.606562404E0,-1.856497049E0,-1.429322243E0,-2.296267152E-1
4.611620268E0,-2.217621565E0,-1.774467707E0,2.177548409E-2
4.616678185E0,-2.547320843E0,-2.017347574E0,3.019397855E-1
4.621736154E0,-2.814701796E0,-2.098840475E0,5.847672224E-1
4.626794018E0,-3.011775494E0,-2.048240423E0,8.276473284E-1
4.631879018E0,-3.150259972E0,-1.914017081E0,1.006079078E0
4.636936935E0,-3.255720854E0,-1.741444468E0,1.122192740E0
4.641994799E0,-3.367573738E0,-1.574730754E0,1.188771725E0
4.647052716E0,-3.478361130E0,-1.461280227E0,1.230316997E0
4.652110633E0,-3.568908453E0,-1.396831632E0,1.256415963E0
4.657168549E0,-3.701001167E0,-1.284978986E0,1.225523353E0
4.662201310E0,-3.927369595E0,-1.150755882E0,1.081180096E0
4.667259226E0,-4.240556717E0,-1.168865323E0,8.484199643E-1
4.672317143E0,-4.651216030E0,-1.361145377E0,6.305735707E-1
4.677375008E0,-5.124725819E0,-1.673267603E0,4.830345809E-1
4.682432976E0,-5.507155418E0,-2.085524559E0,4.089987576E-1
4.687490893E0,-5.660553455E0,-2.459964752E0,3.898240328E-1
4.692554747E0,-5.623802185E0,-2.732672215E0,4.074008763E-1
4.697612612E0,-5.518873215E0,-2.875417471E0,3.839650750E-1
4.702670476E0,-5.328191280E0,-2.828013420E0,1.602597386E-1
4.707728393E0,-5.110877037E0,-2.647983789E0,-2.541277707E-1
4.712786310E0,-5.014471054E0,-2.442920446E0,-7.255069017E-1
4.717844226E0,-5.041635513E0,-2.302305698E0,-1.134567976E0
4.722891987E0,-5.117268562E0,-2.265554190E0,-1.373719692E0
4.727949904E0,-5.226458073E0,-2.241585493E0,-1.421123862E0
4.733007768E0,-5.356953144E0,-2.051436186E0,-1.317793369E0
4.738065685E0,-5.416608334E0,-1.652494907E0,-1.073315263E0
4.743123601E0,-5.380921364E0,-1.175789595E0,-7.393552661E-1
4.748181518E0,-5.306885719E0,-8.647326231E-1,-4.490709901E-1
4.753243445E0,-5.245633125E0,-8.253178596E-1,-3.020646274E-1
4.758301362E0,-5.211544514E0,-1.038903236E0,-3.057930470E-1
4.763359226E0,-5.212077141E0,-1.518804312E0,-4.378857315E-1
4.768417143E0,-5.269601822E0,-2.114819288E0,-6.498731375E-1
4.773475060E0,-5.329256535E0,-2.718291044E0,-9.087321758E-1
4.778532976E0,-5.342039585E0,-3.172093391E0,-1.194755316E0
4.783599279E0,-5.302092075E0,-3.323360682E0,-1.408873439E0
4.788657195E0,-5.157748699E0,-3.221095324E0,-1.501018643E0
4.793715060E0,-4.907944679E0,-3.005912304E0,-1.493029118E0
4.798772976E0,-4.557472706E0,-2.916962862E0,-1.439765930E0
4.803830893E0,-4.146281242E0,-3.024554253E0,-1.377980709E0
4.808888810E0,-3.719110489E0,-3.176354408E0,-1.308205962E0
4.813940008E0,-3.288744211E0,-3.267434359E0,-1.213930130E0
4.818997924E0,-2.864769220E0,-3.339872360E0,-1.091957450E0
4.824055841E0,-2.470088959E0,-3.389939785E0,-9.747785330E-1
4.829113758E0,-2.086061716E0,-3.367569208E0,-8.996774554E-1
4.834171622E0,-1.679663301E0,-3.262108088E0,-8.847637773E-1
4.839229539E0,-1.241840005E0,-3.087937593E0,-8.895574212E-1
4.844289279E0,-8.125388622E-1,-2.889798403E0,-9.119279385E-1
4.849347143E0,-4.279787838E-1,-2.687398434E0,-9.444184899E-1
4.854405008E0,-6.898497045E-2,-2.484998465E0,-9.710500836E-1
4.859462924E0,2.878783047E-1,-2.298044682E0,-1.007269025E0
4.864520893E0,6.388826370E-1,-2.111090899E0,-1.059999466E0
4.869578758E0,9.691143632E-1,-1.857025504E0,-1.100479603E0
4.874638654E0,1.276975513E0,-1.484183311E0,-1.101544738E0
4.879696518E0,1.529443026E0,-1.043164253E0,-1.081837535E0
4.884754435E0,1.711070418E0,-6.016125679E-1,-1.040824771E0
4.889812351E0,1.832510352E0,-2.170524299E-1,-9.779743552E-1
4.894870268E0,1.929982066E0,3.914344311E-2,-8.826332092E-1
4.899928133E0,2.017333508E0,1.643119007E-1,-7.558668852E-1
4.904998393E0,2.084977627E0,2.010634989E-1,-5.832941532E-1
4.910056258E0,2.136110306E0,1.792255938E-1,-3.670457006E-1
4.915114174E0,2.175524950E0,1.211687252E-1,-1.507972181E-1
4.920172091E0,2.203754425E0,7.269924134E-2,3.349338472E-2
4.925230008E0,2.210145950E0,5.672027916E-2,1.789018512E-1
4.930287872E0,2.203222036E0,7.909081876E-2,2.827650309E-1
4.935344070E0,2.195765257E0,1.264950484E-1,3.599966466E-1
4.940401935E0,2.205352306E0,1.968024373E-1,4.026072025E-1
4.945459851E0,2.238908291E0,2.916108966E-1,4.026072025E-1
4.950517768E0,2.303356647E0,3.949414492E-1,3.562682271E-1
4.955575685E0,2.408817768E0,4.945436120E-1,2.795692682E-1
4.960633549E0,2.533986092E0,5.786994100E-1,1.799671203E-1
4.965667924E0,2.655959129E0,6.298320889E-1,6.864708662E-2
4.970725841E0,2.769409418E0,6.447457671E-1,-2.722663805E-2
4.975783706E0,2.881794691E0,6.516699791E-1,-1.076540202E-1
4.980841622E0,2.995245457E0,6.548657417E-1,-1.779614240E-1
4.985899487E0,3.101238966E0,6.415499449E-1,-2.317572385E-1
4.990957456E0,3.194982290E0,6.032004952E-1,-2.573235631E-1
4.996030320E0,3.259430647E0,5.563288927E-1,-2.594541013E-1
5.001088185E0,3.279138088E0,4.940109849E-1,-2.381488234E-1
5.006146049E0,3.241321087E0,4.290298820E-1,-1.987340748E-1
5.011203966E0,3.120413780E0,3.560593426E-1,-1.369487792E-1
5.016261883E0,2.853032827E0,2.543266714E-1,-9.060981125E-2
5.021319799E0,2.410948277E0,1.094508246E-1,-7.942454517E-2
5.026377404E0,1.793095708E0,-4.927343130E-2,-9.913191944E-2
5.031435268E0,1.077238679E0,-1.451471448E-1,-1.587866843E-1
5.036493133E0,3.560551405E-1,-8.815555274E-2,-2.509319782E-1
5.041551049E0,-3.321050704E-1,1.909434944E-1,-3.601214886E-1
5.046609018E0,-1.060212612E0,6.841605306E-1,-4.650499523E-1
5.051666883E0,-1.834126592E0,1.232238650E0,-5.502710342E-1
5.056726779E0,-2.579278469E0,1.690302014E0,-6.083278656E-1
5.061784643E0,-3.257851601E0,2.017870426E0,-6.642541885E-1
5.066842508E0,-3.853866339E0,2.181388617E0,-6.951468587E-1
5.071900476E0,-4.161194801E0,2.291643143E0,-5.966099501E-1
5.076958393E0,-3.596605301E0,2.889256001E0,-2.967382967E-1
5.082016258E0,-1.943848729E0,3.974759579E0,1.847608089E-1
5.087074018E0,-4.448390752E-2,4.073296070E0,8.191251755E-1
5.092131883E0,6.106532216E-1,2.726803303E0,1.252154946E0
5.097189747E0,-9.472947121E-1,5.573941469E-1,1.065733790E0
5.102247664E0,-3.499666214E0,-1.825067639E0,4.036724269E-1
5.107305581E0,-4.507938385E0,-2.896190166E0,2.816706523E-2
5.112363497E0,-3.471969366E0,-3.012303829E0,2.737103105E-1
5.117420372E0,-1.876204491E0,-3.237074375E0,5.299062133E-1
5.122478289E0,-6.309114099E-1,-3.589676619E0,4.526745677E-1
5.127536206E0,4.979191348E-2,-3.829360962E0,2.039355487E-1
5.132594070E0,7.535822690E-2,-3.911918879E0,2.603653818E-2
5.137651987E0,-4.072061479E-1,-3.812849283E0,4.041759670E-2
5.142709904E0,-9.195978045E-1,-3.203518629E0,9.953972697E-2
5.147768549E0,-4.199893177E-1,-1.173658967E0,-1.934077442E-1
5.152826466E0,1.137958646E0,1.673790336E0,-7.537363768E-1
5.157884331E0,2.691112518E0,4.004586697E0,-1.277313352E0
5.162942247E0,3.613631010E0,5.199279308E0,-1.527117491E0
5.168000164E0,4.041334152E0,5.457073212E0,-1.447222829E0
5.173058081E0,4.197395325E0,5.189692020E0,-1.114328027E0
5.178119018E0,4.129750729E0,4.571839333E0,-6.301657557E-1
5.183176883E0,3.831477165E0,3.557708740E0,-6.397821754E-2
5.188234747E0,3.307900190E0,2.132386446E0,5.517441034E-1
5.193292664E0,2.773670435E0,5.121204853E-1,1.207413793E0
5.198350581E0,2.578727245E0,-8.151978850E-1,1.813548684E0
5.203408497E0,2.773670435E0,-1.479922295E0,2.132595062E0
5.208465685E0,3.158230782E0,-1.660484433E0,2.030862331E0
5.213523601E0,3.599782228E0,-1.713747621E0,1.556820154E0
5.218581466E0,4.057845592E0,-1.687116027E0,8.819757700E-1
5.223639383E0,4.520170212E0,-1.472465515E0,2.129902840E-1
5.228697351E0,4.925502777E0,-1.104949474E0,-3.084561825E-1
5.233755216E0,5.188622952E0,-6.937578321E-1,-6.365573406E-1
5.238813445E0,5.267985344E0,-3.368945718E-1,-8.107279539E-1
5.243871362E0,5.185959816E0,-7.217659801E-2,-9.028732181E-1
5.248929226E0,5.009658337E0,3.914344311E-2,-9.689195752E-1
5.253987143E0,4.833889961E0,-5.246922374E-2,-1.015258431E0
5.259045060E0,4.733755112E0,-3.028061390E-1,-1.014193177E0
5.264102976E0,4.706591129E0,-5.659262538E-1,-9.289722443E-1
5.269162508E0,4.710852146E0,-6.708546877E-1,-7.191152573E-1
5.274220372E0,4.705525875E0,-4.972167313E-1,-3.872856796E-1
5.279278289E0,4.658654213E0,-4.447975010E-2,9.524953552E-3
5.284336206E0,4.591542721E0,5.579267740E-1,3.690513670E-1
5.289394070E0,4.512712955E0,1.123049140E0,6.327041388E-1
5.294451987E0,4.413643837E0,1.527849197E0,7.679925561E-1
5.299511049E0,4.250125885E0,1.774457693E0,7.717210054E-1
5.304568966E0,4.014702320E0,1.870331526E0,6.833041310E-1
5.309626831E0,3.730277061E0,1.813339829E0,5.581356287E-1
5.314684747E0,3.403774023E0,1.628516674E0,4.638598561E-1
5.319742664E0,3.030931711E0,1.403213501E0,4.377608895E-1
5.324800581E0,2.604293823E0,1.246619701E0,4.851651192E-1
5.329858862E0,2.172329426E0,1.204541683E0,5.597335100E-1
5.334916779E0,1.832510352E0,1.194954395E0,6.103335619E-1
5.339974695E0,1.612000942E0,1.116124868E0,6.151272655E-1
5.345032612E0,1.444221973E0,9.360952973E-1,6.012788415E-1
5.350090476E0,1.230103970E0,6.916173697E-1,5.964851379E-1
5.355148393E0,9.334280491E-1,4.705751836E-1,6.183230877E-1
5.360211674E0,5.829563141E-1,3.230361640E-1,6.646620035E-1
5.365269539E0,2.495288253E-1,2.058571875E-1,6.758472919E-1
5.370327456E0,-3.276600689E-2,5.938344449E-2,6.145946383E-1
5.375385372E0,-2.719176710E-1,-1.270376593E-1,4.681209028E-1
5.380443237E0,-4.977535605E-1,-3.028061390E-1,2.364260852E-1
5.385501154E0,-7.385030389E-1,-4.077346027E-1,-6.078243628E-2
5.390559747E0,-9.968293905E-1,-4.146588147E-1,-3.926120102E-1
5.395617768E0,-1.260482192E0,-3.576672375E-1,-7.004731894E-1
5.400675789E0,-1.481524348E0,-3.635261655E-1,-9.454838037E-1
5.405733758E0,-1.612551689E0,-5.462188125E-1,-1.104740620E0
5.410791779E0,-1.645574927E0,-8.908316493E-1,-1.163862824E0
5.415849851E0,-1.630128622E0,-1.297762275E0,-1.122850060E0
5.420902664E0,-1.691381216E0,-1.691909671E0,-1.013127923E0
5.425960685E0,-1.902303457E0,-1.989118218E0,-8.538711667E-1
5.431018706E0,-2.205371141E0,-2.178735018E0,-6.397531629E-1
5.436076726E0,-2.525482893E0,-2.280467749E0,-3.840899169E-1
5.441134747E0,-2.810973406E0,-2.294848680E0,-1.049908698E-1
5.446192768E0,-3.040005207E0,-2.206432104E0,1.613249928E-1
5.451248081E0,-3.232285023E0,-1.982193947E0,3.631924391E-1
5.456306101E0,-3.444272757E0,-1.716410756E0,4.697187841E-1
5.461364122E0,-3.714849472E0,-1.565143347E0,4.904914498E-1
5.466422143E0,-4.031765461E0,-1.641309738E0,4.548051059E-1
5.471480164E0,-4.349746704E0,-1.941714048E0,3.967482448E-1
5.476538185E0,-4.597952843E0,-2.324676275E0,3.434850574E-1
5.481596935E0,-4.730578423E0,-2.607503891E0,3.163208365E-1
5.486654956E0,-4.797689438E0,-2.670886755E0,3.131250441E-1
5.491712976E0,-4.846692085E0,-2.564893246E0,2.982113361E-1
5.496770997E0,-4.837637424E0,-2.497248888E0,2.050008029E-1
5.501828966E0,-4.855746746E0,-2.537728786E0,4.361338541E-2
5.506887039E0,-5.021927834E0,-2.426941633E0,-8.475086093E-2
5.511963445E0,-5.305287838E0,-2.046642542E0,-1.087192968E-1
5.517021466E0,-5.631258488E0,-1.558219194E0,-5.492348596E-2
5.522079487E0,-5.915683746E0,-1.123059034E0,1.272074319E-2
5.527137508E0,-6.099442005E0,-7.560757399E-1,6.225549802E-2
5.532195529E0,-6.135660648E0,-4.274419844E-1,8.409340680E-2
5.537253549E0,-5.999307156E0,-7.324185967E-2,2.497127466E-2
5.542303081E0,-5.680793285E0,3.422109187E-1,-1.385466754E-1
5.547361101E0,-5.213675499E0,6.442131400E-1,-3.915467560E-1
5.552419122E0,-4.719392776E0,6.415499449E-1,-6.919510961E-1
5.557477143E0,-4.318853855E0,2.282277197E-1,-9.848985672E-1
5.562535164E0,-4.064256191E0,-6.207873225E-1,-1.274117589E0
5.567593185E0,-3.973708391E0,-1.810153961E0,-1.531378627E0
5.572638758E0,-4.013123035E0,-3.053848982E0,-1.716201901E0
5.577696779E0,-4.090354919E0,-3.966779947E0,-1.818999767E0
5.582754799E0,-4.160662174E0,-4.388092041E0,-1.803020835E0
5.587812820E0,-4.151607513E0,-4.417919159E0,-1.673058748E0
5.592870841E0,-4.060527325E0,-4.254401684E0,-1.464267135E0
5.597928862E0,-3.885824442E0,-4.076502800E0,-1.245355487E0
5.603002612E0,-3.602996826E0,-3.879428387E0,-1.116458535E0
5.608060633E0,-3.277026415E0,-3.745737791E0,-9.630606771E-1
5.613118601E0,-2.922826052E0,-3.674365044E0,-7.840963602E-1
5.618176622E0,-2.512166977E0,-3.559849262E0,-7.042015791E-1
5.623234643E0,-2.091920614E0,-3.422430277E0,-7.105931640E-1
5.628292664E0,-1.686054945E0,-3.259977579E0,-7.521384954E-1
5.633334643E0,-1.275928497E0,-3.144929171E0,-7.862269282E-1
5.638392664E0,-8.588778377E-1,-3.029880762E0,-8.224458694E-1
5.643450685E0,-4.604693353E-1,-2.911636353E0,-8.490774632E-1
5.648508654E0,-9.987761825E-2,-2.802446842E0,-8.506753445E-1
5.653566674E0,2.122446001E-1,-2.670354128E0,-8.421532512E-1
5.658624695E0,5.126489401E-1,-2.386461496E0,-8.384248018E-1
5.663681466E0,8.071942925E-1,-1.960888743E0,-8.506753445E-1
5.668739487E0,1.080434322E0,-1.503358006E0,-8.453490138E-1
5.673797508E0,1.307868242E0,-1.093764186E0,-8.181847930E-1
5.678855476E0,1.500148177E0,-7.848379016E-1,-7.974121571E-1
5.683913497E0,1.683373570E0,-5.787093639E-1,-7.809005380E-1
5.688971518E0,1.858076811E0,-4.146588147E-1,-7.633237243E-1
5.694039070E0,2.000289440E0,-2.543366551E-1,-7.148542404E-1
5.699097091E0,2.107880831E0,-1.137218773E-1,-6.051320434E-1
5.704155112E0,2.182981968E0,9.316062555E-3,-4.597236216E-1
5.709213081E0,2.239440918E0,9.879819304E-2,-3.052604198E-1
5.714271101E0,2.276192427E0,1.776276976E-1,-1.614498496E-1
5.719329174E0,2.296432495E0,2.628487647E-1,-5.172769725E-2
5.724386831E0,2.294834614E0,3.459393382E-1,8.459690958E-3
5.729444851E0,2.271398783E0,4.109204113E-1,1.538390294E-2
5.734502872E0,2.263942003E0,4.498025477E-1,-3.734663874E-2
5.739560893E0,2.285779715E0,4.524656832E-1,-1.396119446E-1
5.744618862E0,2.341706038E0,4.508677721E-1,-2.583888173E-1
5.749676935E0,2.418405056E0,4.695098996E-1,-3.595888615E-1
5.754735060E0,2.481255531E0,5.078594089E-1,-4.330920279E-1
5.759793081E0,2.502028465E0,5.526004434E-1,-5.028668046E-1
5.764851101E0,2.458884954E0,6.351583600E-1,-5.774352551E-1
5.769909122E0,2.340641022E0,7.731100321E-1,-6.626563072E-1
5.774967091E0,2.100423813E0,1.000011206E0,-7.590626478E-1
5.780025164E0,1.712668300E0,1.339830279E0,-8.490774632E-1
5.785084174E0,1.183764935E0,1.732379913E0,-9.183195829E-1
5.790142195E0,5.664448142E-1,1.999760866E0,-9.188522100E-1
5.795200216E0,-1.334334165E-1,1.935845137E0,-7.793026567E-1
5.800258237E0,-1.008014679E0,1.524653435E0,-5.087257624E-1
5.805316206E0,-2.083931208E0,1.019718647E0,-2.802267373E-1
5.810374226E0,-3.257318735E0,8.285037279E-1,-2.850204110E-1
5.815430789E0,-4.441891670E0,1.176312327E0,-4.448099136E-1
5.820488810E0,-5.493306637E0,1.872462034E0,-5.417488813E-1
5.825546831E0,-5.791580677E0,2.700704336E0,-4.810288846E-1
5.830604851E0,-4.687435150E0,3.690334082E0,-1.465361565E-1
5.835662820E0,-2.402977467E0,4.606992722E0,4.148577154E-1
5.840720841E0,-2.356987000E-1,4.614982605E0,6.513462067E-1
5.845779851E0,1.392740458E-1,3.527881384E0,2.177548409E-2
5.850837872E0,-1.133183241E0,1.977390528E0,-8.895574212E-1
5.855895893E0,-2.017884731E0,8.380910754E-1,-1.160666943E0
5.860953862E0,-1.573137045E0,-3.276184946E-2,-8.544037342E-1
5.866011883E0,-5.313093066E-1,-9.270505309E-1,-5.161826015E-1
5.871069904E0,3.528593779E-1,-1.521467566E0,-3.297615051E-1
5.876126258E0,7.768343091E-1,-1.789381385E0,-1.539929956E-1
5.881184279E0,6.910805702E-1,-1.994444489E0,1.123228893E-1
5.886242299E0,3.725667298E-1,-1.854362369E0,2.998092473E-1
5.891300268E0,1.049541831E0,6.311186403E-2,1.368239373E-1
5.896358289E0,3.141186237E0,3.201910734E0,-4.027320445E-1
5.901416310E0,4.971841812E0,5.271717548E0,-1.001942635E0
5.906473758E0,5.538029194E0,5.959877491E0,-1.323652387E0
5.911531779E0,5.077302933E0,5.888504982E0,-1.223517418E0
5.916589799E0,4.287942886E0,5.335633278E0,-7.217784524E-1
5.921647768E0,3.878881454E0,4.416843414E0,4.893970490E-2
5.926705789E0,3.889001608E0,3.146517277E0,9.480221272E-1
5.931763810E0,3.934807539E0,1.613602996E0,1.827397227E0
5.936825112E0,3.954515219E0,1.286255717E-1,2.518753290E0
5.941883133E0,4.183546543E0,-9.595410824E-1,2.850049973E0
5.946941154E0,4.601663113E0,-1.507086396E0,2.664161682E0
5.951999122E0,5.022974491E0,-1.583785415E0,1.993578315E0
5.957057143E0,5.328704834E0,-1.322263241E0,1.087039113E0
5.962115164E0,5.512463093E0,-7.667284012E-1,2.449481785E-1
5.967172456E0,5.665861130E0,-1.944605261E-2,-3.750351667E-1
5.972230476E0,5.824585438E0,6.591268182E-1,-8.069995642E-1
5.977288497E0,5.871456623E0,1.180573344E0,-1.021117449E0
5.982346466E0,5.775583267E0,1.612005115E0,-9.998121262E-1
5.987404487E0,5.598216534E0,1.853287220E0,-8.064668775E-1
5.992462508E0,5.368652821E0,1.769131422E0,-5.081930757E-1
5.997504904E0,5.117783070E0,1.484173417E0,-1.550582647E-1
6.002562924E0,4.883957386E0,1.234901786E0,2.209797651E-1
6.007620945E0,4.700732231E0,1.136364937E0,5.916914940E-1
6.012678966E0,4.553193092E0,1.147017598E0,8.873021007E-1
6.017736987E0,4.413111210E0,1.145952225E0,1.024721146E0
6.022795008E0,4.241071224E0,1.020783782E0,9.794474244E-1
6.027851049E0,4.025887966E0,7.906868458E-1,7.861020565E-1
6.032909070E0,3.764898300E0,5.179794431E-1,5.528093576E-1
6.037967091E0,3.443721294E0,2.836214006E-1,4.010092914E-1
6.043025060E0,3.086325407E0,1.520613879E-1,3.866282403E-1
6.048083081E0,2.740114689E0,7.429713011E-2,4.825019240E-1
6.053141101E0,2.441308498E0,1.357711479E-2,6.002135873E-1
6.058194695E0,2.241571426E0,-2.264184318E-2,6.774451137E-1
6.063252716E0,2.147828102E0,-7.750291377E-2,6.870325208E-1
6.068310737E0,2.105217457E0,-1.717787385E-1,6.327041388E-1
6.073368758E0,2.031181812E0,-3.134588003E-1,5.400261879E-1
6.078426779E0,1.899089336E0,-5.254462361E-1,4.601314366E-1
6.083484799E0,1.704678893E0,-7.363683581E-1,4.068682492E-1
6.088550633E0,1.456472397E0,-8.711242080E-1,3.786387444E-1
6.093608654E0,1.165122867E0,-9.270505309E-1,3.530724347E-1
6.098666674E0,8.588595986E-1,-9.020168781E-1,3.083313704E-1
6.103724695E0,5.584552884E-1,-7.571409941E-1,2.279039770E-1
6.108782716E0,2.969330549E-1,-4.285072386E-1,9.687656909E-2
6.113840737E0,7.855402678E-2,8.175397664E-2,-9.646876156E-2
6.118907924E0,-1.052039340E-1,6.436804533E-1,-3.382835984E-1
6.123965945E0,-2.564713359E-1,1.039425850E0,-6.104584336E-1
6.129023966E0,-3.986840546E-1,1.127842784E0,-9.071343541E-1
6.134081935E0,-5.744524598E-1,9.424869418E-1,-1.163862824E0
6.139139956E0,-8.029515147E-1,6.063962579E-1,-1.318325877E0
6.144197976E0,-1.041037798E0,1.776276976E-1,-1.365197539E0
6.149260581E0,-1.231187344E0,-3.171872199E-1,-1.333772302E0
6.154318601E0,-1.369138956E0,-8.237199783E-1,-1.259736419E0
6.159376622E0,-1.509221196E0,-1.286576867E0,-1.149481654E0
6.164434591E0,-1.705229759E0,-1.669006467E0,-1.006203771E0
6.169492664E0,-1.944913864E0,-1.887385488E0,-8.442837596E-1
6.174550633E0,-2.190457582E0,-1.851699233E0,-6.786352992E-1
6.179609851E0,-2.408303976E0,-1.631722331E0,-5.172478557E-1
6.184667872E0,-2.562767029E0,-1.401092768E0,-3.856878281E-1
6.189725893E0,-2.664499760E0,-1.261543274E0,-2.908793390E-1
6.194783862E0,-2.757177591E0,-1.220530510E0,-1.997993290E-1
6.199841935E0,-2.872758865E0,-1.253021121E0,-9.913191944E-2
6.204899904E0,-3.027754545E0,-1.310012698E0,9.524953552E-3
6.209957612E0,-3.231752396E0,-1.324926376E0,1.277692020E-1
6.215015633E0,-3.443207264E0,-1.261010647E0,2.321650237E-1
6.220073654E0,-3.630693913E0,-1.112939000E0,2.769060731E-1
6.225131622E0,-3.815516710E0,-8.871031404E-1,2.513397634E-1
6.230189695E0,-4.053603172E0,-7.006821036E-1,1.490744799E-1
6.235247664E0,-4.390226841E0,-7.448905110E-1,-1.497610845E-2
6.240304070E0,-4.842431068E0,-1.066599965E0,-1.710372120E-1
6.245362091E0,-5.337778568E0,-1.583785415E0,-2.557256520E-1
6.250420112E0,-5.735654354E0,-2.168615103E0,-2.488014549E-1
6.255478081E0,-5.963088036E0,-2.549446821E0,-2.248330265E-1
6.260536154E0,-5.990784645E0,-2.614960670E0,-2.402793467E-1
6.265594122E0,-5.917282104E0,-2.513760328E0,-2.605193257E-1
6.270652560E0,-5.901302814E0,-2.290587902E0,-2.626498938E-1
6.275710581E0,-5.980665207E0,-2.039185524E0,-2.924772501E-1
6.280768601E0,-6.095713615E0,-1.883657098E0,-3.611867428E-1
6.285826570E0,-6.202772617E0,-1.702562332E0,-4.330920279E-1
6.290884591E0,-6.284265518E0,-1.333981276E0,-4.922141731E-1
6.295942612E0,-6.281601906E0,-8.114694357E-1,-5.199109912E-1
6.301000529E0,-6.144715309E0,-1.744419038E-1,-5.183131099E-1
6.306058549E0,-5.840582848E0,5.520678759E-1,-5.007362962E-1
6.311116570E0,-5.428326130E0,1.134234309E0,-5.199109912E-1
6.316174591E0,-5.036308765E0,1.184301734E0,-6.472100019E-1
6.321232560E0,-4.757742405E0,6.442131400E-1,-8.496100903E-1
6.326290581E0,-4.601681232E0,-1.659197807E-1,-1.057868958E0
6.331349018E0,-4.522318840E0,-8.402315974E-1,-1.194755316E0
6.336407039E0,-4.412596703E0,-1.388309598E0,-1.293292165E0
6.341465060E0,-4.245350838E0,-2.021608829E0,-1.418460727E0
6.346523029E0,-4.072778225E0,-2.671419621E0,-1.515932322E0
6.351581049E0,-3.899140120E0,-3.074621677E0,-1.462136626E0
6.356639070E0,-3.701001167E0,-3.151853323E0,-1.233104825E0
6.361698601E0,-3.447468519E0,-3.074089050E0,-8.900900483E-1
6.366756622E0,-3.115106106E0,-2.915364981E0,-5.241720676E-1
6.371814643E0,-2.737470150E0,-2.768891096E0,-2.535951436E-1
6.376872612E0,-2.345985889E0,-2.610699415E0,-1.076540202E-1
6.381930633E0,-1.954501271E0,-2.395516157E0,-7.250033319E-2
6.386988654E0,-1.571539164E0,-2.186724424E0,-1.294919252E-1
6.392044904E0,-1.181119919E0,-2.028532982E0,-2.232351303E-1
6.397102924E0,-7.651346326E-1,-1.879396081E0,-3.398814797E-1
6.402160893E0,-3.677913845E-1,-1.711084485E0,-4.735720456E-1
6.407218914E0,1.855056733E-3,-1.467139006E0,-5.843594670E-1
6.412276935E0,3.523267508E-1,-1.123059034E0,-6.557320952E-1
6.417334956E0,6.857542992E-1,-6.799094677E-1,-6.882226467E-1
6.422456049E0,1.003735423E0,-1.536692530E-1,-6.924836636E-1
6.427514070E0,1.289758682E0,4.125182927E-1,-6.615910530E-1
6.432572039E0,1.551813483E0,9.542047977E-1,-6.008710265E-1
6.437630060E0,1.786704183E0,1.388299823E0,-5.236394405E-1
6.442688081E0,1.969929457E0,1.651952505E0,-4.032646716E-1
6.447746101E0,2.086043119E0,1.748891473E0,-2.253656536E-1
6.452725476E0,2.156882763E0,1.724922895E0,-2.882453240E-2
6.457783445E0,2.218135595E0,1.591765165E0,1.261713058E-1
6.462841466E0,2.300160885E0,1.361668229E0,1.815650016E-1
6.467899487E0,2.402958870E0,1.088960648E0,1.405523717E-1
6.472957508E0,2.532920837E0,7.885563374E-1,2.230811492E-2
6.478015476E0,2.654893637E0,4.886846542E-1,-1.337529868E-1
6.483101518E0,2.759822130E0,2.276950777E-1,-3.116520047E-1
6.488159487E0,2.852499962E0,2.849080414E-2,-4.959425926E-1
6.493217508E0,2.924937963E0,4.522376694E-3,-6.573299766E-1
6.498275529E0,2.946243286E0,1.840192825E-1,-8.048689961E-1
6.503333549E0,2.900969505E0,4.455415010E-1,-9.854311347E-1
6.508391518E0,2.772072554E0,6.990742087E-1,-1.245355487E0
6.513455372E0,2.540377617E0,9.621942639E-1,-1.565999746E0
6.518513341E0,2.169133663E0,1.308937550E0,-1.897829294E0
6.523571362E0,1.644491434E0,1.768066168E0,-2.189711571E0
6.528629383E0,1.031432271E0,2.278327465E0,-2.401699066E0
6.533687404E0,4.247646332E-1,2.757163525E0,-2.511421204E0
6.538745372E0,-1.254439205E-1,3.141723394E0,-2.538585424E0
6.543790372E0,-6.399661303E-1,3.274348736E0,-2.472538948E0
6.548848341E0,-1.076191664E0,3.042121410E0,-2.307423353E0
6.553906362E0,-1.302027464E0,2.627733707E0,-2.072000027E0
6.558964383E0,-1.322267413E0,2.301230669E0,-1.869067192E0
6.564022404E0,-1.247698903E0,2.077525139E0,-1.758279800E0
6.569080372E0,-1.190707326E0,1.792567253E0,-1.654949188E0
6.574133445E0,-1.232785225E0,1.401082873E0,-1.394492269E0
6.579191414E0,-1.339844346E0,1.173649192E0,-8.980795741E-1
6.584249435E0,-1.395238042E0,1.478314519E0,-2.402793467E-1
6.589307508E0,-1.256221175E0,2.401898146E0,5.038072467E-1
6.594365476E0,-9.813830853E-1,3.295121431E0,1.541373968E0
6.599423497E0,-1.105486274E0,2.125994682E0,3.137138367E0
6.604482351E0,-2.274080515E0,-1.665278077E0,4.556069374E0
6.609540372E0,-4.376910686E0,-6.036054611E0,4.669520378E0
6.614598341E0,-6.435532570E0,-7.996672153E0,3.246328115E0
6.619656362E0,-6.657639980E0,-6.050968647E0,1.431651711E0
6.624714383E0,-4.128704548E0,-1.740911722E0,1.741081625E-1
6.629772404E0,9.666350484E-2,1.958748341E0,-1.398220658E0
6.634828810E0,3.376076937E0,3.405376196E0,-2.709027529E0
6.639886831E0,4.522833347E0,3.523087740E0,-2.865621328E0
6.644944799E0,4.317770004E0,3.818698406E0,-2.293042183E0
6.650002820E0,3.561965704E0,4.590481758E0,-1.595827103E0
6.655060841E0,2.710287333E0,5.095948696E0,-1.180907011E0
6.660118862E0,1.968331575E0,5.148679256E0,-1.040824771E0
6.665176883E0,1.399480820E0,5.033630848E0,-8.789048195E-1
6.670234904E0,1.231169224E0,4.847742081E0,-5.444120765E-1
6.675292872E0,1.417590380E0,4.514315128E0,-1.380140334E-1
6.680350893E0,1.776051402E0,3.896462679E0,2.678513527E-1
6.685408914E0,2.283649206E0,3.171018124E0,6.619988680E-1
6.690466935E0,2.795508385E0,2.626668453E0,9.948936701E-1
6.695526362E0,3.140121222E0,2.371005297E0,1.229251742E0
6.700584331E0,3.432535887E0,2.349699974E0,1.388508677E0
6.705642351E0,3.910306692E0,2.314546347E0,1.447098136E0
6.710700372E0,4.567041874E0,2.435453653E0,1.353354812E0
6.715758393E0,5.267985344E0,3.020816088E0,1.087039113E0
6.720816362E0,5.874652386E0,3.819231033E0,6.982178092E-1
6.725874956E0,6.224591732E0,4.355590820E0,2.785039842E-1
6.730932924E0,6.257082462E0,4.416843414E0,-4.214032367E-2
6.735990945E0,6.023256779E0,4.057316780E0,-1.721024811E-1
6.741048966E0,5.605673790E0,3.398984671E0,-1.246982440E-1
6.746106987E0,5.055465221E0,2.581927538E0,4.521128163E-2
6.751164956E0,4.465308666E0,1.784045100E0,3.051355779E-1
6.756221726E0,3.981146812E0,1.200280786E0,6.316388845E-1
6.761279695E0,3.721755266E0,1.073514342E0,9.885020852E-1
6.766337716E0,3.748386621E0,1.306807160E0,1.307548642E0
6.771395737E0,4.039203644E0,1.660474539E0,1.542439222E0
6.776453758E0,4.415774345E0,1.998695850E0,1.692108750E0
6.781511726E0,4.659719467E0,2.285784245E0,1.793308735E0
6.786572351E0,4.679427147E0,2.396039009E0,1.874268770E0
6.791630320E0,4.522300720E0,2.287382126E0,1.958957314E0
6.796688341E0,4.251191139E0,2.008815765E0,2.045776129E0
6.801746362E0,3.945992947E0,1.687638760E0,2.112354994E0
6.806804383E0,3.675948858E0,1.398419738E0,2.128866673E0
6.811862351E0,3.365424395E0,1.304143906E0,2.058559418E0
6.816919539E0,2.969146252E0,1.452215552E0,1.899302483E0
6.821977508E0,2.553160906E0,1.608809352E0,1.669205546E0
6.827035529E0,2.193101883E0,1.714270353E0,1.420466542E0
6.832093549E0,1.934243083E0,1.805883050E0,1.183978081E0
6.837151570E0,1.755278826E0,1.875657797E0,9.725231528E-1
6.842209539E0,1.609337807E0,1.878853559E0,7.951568365E-1
6.847268029E0,1.446884990E0,1.796828389E0,6.465525031E-1
6.852326049E0,1.210396528E0,1.631179810E0,5.352324843E-1
6.857384018E0,9.147859216E-1,1.420257688E0,4.686535299E-1
6.862442039E0,6.202405691E-1,1.207737565E0,4.121945500E-1
6.867500060E0,3.597835600E-1,1.061263919E0,3.376260996E-1
6.872558029E0,1.291540414E-1,1.037827969E0,2.236429155E-1
6.877612456E0,-8.496392518E-2,1.134234309E0,6.917971373E-2
6.882670424E0,-2.644608319E-1,1.299350142E0,-1.135129780E-1
6.887728445E0,-4.002819359E-1,1.496956587E0,-3.425446451E-1
6.892786466E0,-5.345050693E-1,1.653550386E0,-6.067299843E-1
6.897844487E0,-7.065451145E-1,1.639169335E0,-8.863616586E-1
6.902902456E0,-9.121409655E-1,1.378179789E0,-1.160134315E0
6.907965841E0,-1.074593663E0,9.424869418E-1,-1.381176472E0
6.913023810E0,-1.155553699E0,4.748362303E-1,-1.496224999E0
6.918081831E0,-1.220534801E0,6.098133326E-2,-1.486637592E0
6.923139851E0,-1.329191566E0,-3.177198470E-1,-1.389698625E0
6.928197872E0,-1.499101162E0,-7.321073413E-1,-1.254410148E0
6.933255841E0,-1.728132725E0,-1.169930577E0,-1.126045942E0
6.938328341E0,-1.996046543E0,-1.556621194E0,-1.005671144E0
6.943386310E0,-2.273015261E0,-1.821871877E0,-8.682521582E-1
6.948444331E0,-2.531874418E0,-1.945974946E0,-6.983426213E-1
6.953502351E0,-2.775287151E0,-1.969943523E0,-5.119215846E-1
6.958560372E0,-3.006449223E0,-1.960356116E0,-3.302941024E-1
6.963618341E0,-3.188076735E0,-1.948105574E0,-1.758309007E-1
6.968658862E0,-3.306320906E0,-1.925202370E0,-6.930454075E-2
6.973716831E0,-3.400064230E0,-1.907092929E0,1.165548060E-2
6.978774851E0,-3.510851622E0,-1.884189725E0,7.929971814E-2
6.983832872E0,-3.649335861E0,-1.827730894E0,1.309649944E-1
6.988890893E0,-3.801668406E0,-1.712682366E0,1.549334228E-1
6.993948862E0,-3.989687443E0,-1.574730754E0,1.368239373E-1
6.999001622E0,-4.241089344E0,-1.500694871E0,9.634393454E-2
7.004059643E0,-4.559603691E0,-1.516141295E0,6.545129418E-2
7.009117612E0,-4.943098545E0,-1.609884381E0,8.675656468E-2
7.014175633E0,-5.368138313E0,-1.738781214E0,1.879565865E-1
7.019233654E0,-5.774536133E0,-1.915082455E0,3.312345445E-1
7.024291674E0,-6.066951275E0,-2.090851068E0,4.345650673E-1
7.029354851E0,-6.210762024E0,-2.139853001E0,4.239124656E-1
7.034412820E0,-6.268818378E0,-2.067415237E0,3.317671716E-1
7.039470893E0,-6.322081566E0,-1.888450861E0,2.321650237E-1
7.044528862E0,-6.381204128E0,-1.593372822E0,1.629228890E-1
7.049586883E0,-6.478143215E0,-1.181115866E0,1.283018291E-1
7.054644851E0,-6.609170437E0,-6.500820518E-1,1.591944695E-1
7.059703029E0,-6.699185371E0,-1.158524007E-1,2.481439859E-1
7.064760997E0,-6.709837914E0,2.276950777E-1,3.338976800E-1
7.069819018E0,-6.640063286E0,2.186403424E-1,3.397566378E-1
7.074877039E0,-6.497850418E0,-1.286355704E-1,2.358934432E-1
7.079935060E0,-6.329538822E0,-6.143957376E-1,8.409340680E-2
7.084993029E0,-6.197978497E0,-1.075122118E0,-1.444347575E-2
7.090052976E0,-6.073342800E0,-1.482052803E0,-4.000979662E-2
7.095110945E0,-5.903433323E0,-1.813882351E0,-3.042242862E-2
7.100169018E0,-5.664281845E0,-1.999238133E0,2.390600927E-2
7.105226987E0,-5.357486248E0,-2.030130863E0,1.533355266E-1
7.110285008E0,-4.975056171E0,-2.056229830E0,3.237777054E-1
7.115342976E0,-4.551081181E0,-2.182996273E0,4.734472036E-1
7.120387404E0,-4.124443531E0,-2.324676275E0,6.145946383E-1
7.125445424E0,-3.697805405E0,-2.482335091E0,7.525462508E-1
7.130503445E0,-3.281819820E0,-2.682604790E0,8.963568211E-1
7.135561466E0,-2.866367102E0,-2.912701845E0,1.015133739E0
7.140619487E0,-2.442392349E0,-3.055446863E0,1.088104248E0
7.145677456E0,-1.999775052E0,-3.071958542E0,1.082777977E0
7.150726674E0,-1.510819077E0,-2.972888947E0,9.757189751E-1
7.155784695E0,-1.002688408E0,-2.755042553E0,8.036789298E-1
7.160842664E0,-5.446251035E-1,-2.525478363E0,6.188556552E-1
7.165900685E0,-1.605976224E-1,-2.365688801E0,4.430871904E-1
7.170958706E0,1.722972244E-1,-2.255434036E0,3.008745313E-1
7.176016726E0,4.508636296E-1,-2.156364679E0,1.948807985E-1
7.181080893E0,7.059943080E-1,-2.002434015E0,1.261713058E-1
7.186138914E0,9.249058962E-1,-1.777663469E0,7.237550616E-2
7.191196883E0,1.095348001E0,-1.522532821E0,3.133372869E-3
7.196254904E0,1.233832359E0,-1.214139104E0,-8.048980683E-2
7.201312924E0,1.343021870E0,-8.865705729E-1,-1.561235189E-1
7.206370945E0,1.420786023E0,-5.920251608E-1,-2.168435305E-1
7.211425372E0,1.479375601E0,-2.846966684E-1,-2.631825209E-1
7.216483393E0,1.521986127E0,5.565501750E-2,-2.828898728E-1
7.221541362E0,1.568325043E0,4.162467122E-1,-2.610519826E-1
7.226599383E0,1.627447128E0,7.795015574E-1,-2.045930177E-1
7.231657404E0,1.700950384E0,1.111331224E0,-1.177740246E-1
7.236715424E0,1.795226216E0,1.328644991E0,-1.923716068E-2
7.241803393E0,1.933177829E0,1.422388196E0,6.917971373E-2
7.246861362E0,2.090303898E0,1.412268162E0,1.400197297E-1
7.251919383E0,2.238908291E0,1.355276585E0,1.820976436E-1
7.256977404E0,2.359815598E0,1.316394567E0,1.778365970E-1
7.262035424E0,2.444504261E0,1.336101770E0,1.267039329E-1
7.267093393E0,2.500430346E0,1.457009315E0,2.710180171E-2
7.272177143E0,2.551563025E0,1.685508251E0,-1.422750950E-1
7.277235164E0,2.590977907E0,1.994434595E0,-4.000688791E-1
7.282293133E0,2.631990433E0,2.300165415E0,-7.159194946E-1
7.287346258E0,2.691112518E0,2.524403095E0,-1.024313211E0
7.292404279E0,2.759289265E0,2.678866625E0,-1.291694283E0
7.297462247E0,2.818944216E0,2.804034948E0,-1.527117491E0
7.302520268E0,2.870076895E0,2.945182562E0,-1.723658681E0
7.307578289E0,2.911622047E0,3.121483564E0,-1.848294497E0
7.312636258E0,2.943580151E0,3.318557262E0,-1.881850362E0
7.317663497E0,2.937721014E0,3.477813959E0,-1.806749225E0
7.322721466E0,2.856760979E0,3.498586655E0,-1.604881883E0
7.327779487E0,2.638914585E0,3.288729906E0,-1.313532233E0
7.332837560E0,2.237843037E0,2.733727694E0,-9.864964485E-1
7.337895529E0,1.672188282E0,1.811209321E0,-6.669173837E-1
7.342953497E0,9.584617615E-1,7.347605228E-1,-3.942099214E-1
7.348011101E0,1.360782683E-1,-1.009387150E-1,-2.258982807E-1
7.353069122E0,-7.012188435E-1,-4.727156758E-1,-1.449382603E-1
7.358127091E0,-1.541179061E0,-4.759114683E-1,-6.344559044E-2
7.363185112E0,-2.393390179E0,-1.994755864E-1,3.029759228E-2
7.368243133E0,-3.218436718E0,2.633814216E-1,1.165839434E-1
7.373301154E0,-3.671173811E0,6.937478185E-1,3.296366334E-1
7.378364539E0,-3.289809227E0,1.183769107E0,8.883672953E-1
7.383422560E0,-2.166488886E0,1.799491405E0,1.725131869E0
7.388480529E0,-8.711283207E-1,1.911344051E0,2.360561609E0
7.393538601E0,-2.447534353E-1,1.460737705E0,2.205565691E0
7.398596570E0,-3.411598206E-1,7.320973277E-1,1.284112811E0
7.403654591E0,-5.313093066E-1,-1.898882091E-1,4.153903425E-1
7.408708341E0,-5.201240182E-1,-9.962927103E-1,2.460134625E-1
7.413766362E0,-2.772440016E-1,-1.407484412E0,4.052703381E-1
7.418824331E0,1.254256219E-1,-1.474596024E0,4.777082801E-1
7.423882404E0,5.845542550E-1,-1.224791646E0,4.537398219E-1
7.428940372E0,9.978764653E-1,-7.044104934E-1,4.068682492E-1
7.433998341E0,1.351011395E0,7.482976466E-2,3.253755867E-1
7.439069799E0,1.752083063E0,1.343558669E0,1.719776392E-1
7.444127768E0,2.467940092E0,3.094319105E0,-8.847928047E-2
7.449185789E0,3.488994837E0,4.932430744E0,-5.076604486E-1
7.454243810E0,4.428557396E0,6.336981297E0,-9.635932446E-1
7.459301831E0,5.010190964E0,7.149244308E0,-1.249616385E0
7.464359851E0,5.105000019E0,7.405972958E0,-1.253344893E0
7.469414904E0,4.754528046E0,7.132200241E0,-1.009399533E0
7.474472924E0,4.229885578E0,6.563349247E0,-6.360247135E-1
7.479530945E0,3.810704708E0,6.031250000E0,-2.717046142E-1
7.484588914E0,3.596054077E0,5.595025063E0,5.213549733E-2
7.489646935E0,3.638131857E0,5.057066917E0,3.754429817E-1
7.494704956E0,3.913502455E0,4.315111160E0,7.227188945E-1
7.499756518E0,4.377957344E0,3.414963484E0,9.996873736E-1
7.504814539E0,4.871174812E0,2.665018082E0,1.068929553E0
7.509872508E0,5.195014477E0,2.426398993E0,9.096726179E-1
7.514930529E0,5.391555309E0,2.689519167E0,6.060725451E-1
7.519988549E0,5.550812244E0,3.123614073E0,2.635902762E-1
7.525046570E0,5.621119976E0,3.438399315E0,-3.202032298E-2
7.530102247E0,5.544953346E0,3.453313112E0,-1.529277414E-1
7.535160216E0,5.332966328E0,3.021881342E0,-6.184769422E-2
7.540218237E0,5.022974491E0,2.263413668E0,2.103271186E-1
7.545276258E0,4.666643620E0,1.472455502E0,6.353672743E-1
7.550334279E0,4.336411953E0,9.339647889E-1,1.130182266E0
7.555392247E0,4.137740612E0,6.932152510E-1,1.597832918E0
7.560452820E0,4.135610104E0,6.000046730E-1,1.999437213E0
7.565510841E0,4.302323341E0,5.360888243E-1,2.318483591E0
7.570568862E0,4.477026463E0,5.856236219E-1,2.559233189E0
7.575626831E0,4.539877415E0,7.901542187E-1,2.706772089E0
7.580684904E0,4.474896431E0,1.068188071E0,2.738729954E0
7.585742872E0,4.348130226E0,1.360602856E0,2.631670952E0
7.590800164E0,4.161708832E0,1.684975624E0,2.392519236E0
7.595858133E0,3.891664505E0,1.826655626E0,2.036188841E0
7.600916206E0,3.553976059E0,1.787773490E0,1.617540240E0
7.605974174E0,3.200308561E0,1.736640811E0,1.205815911E0
7.611032195E0,2.825335741E0,1.744630337E0,8.899652362E-1
7.616090164E0,2.444504261E0,1.751554489E0,6.950220466E-1
7.621152195E0,2.127055407E0,1.654615641E0,5.741146207E-1
7.626210164E0,1.888969421E0,1.412800789E0,4.761103690E-1
7.631268185E0,1.674851418E0,1.136364937E0,4.063356221E-1
7.636326206E0,1.445287108E0,9.526069164E-1,3.983461559E-1
7.641384226E0,1.167253375E0,9.046700001E-1,5.032745600E-1
7.646442195E0,8.375543356E-1,9.414216280E-1,6.465525031E-1
7.651504018E0,4.444720447E-1,9.728469253E-1,7.094030976E-1
7.656561987E0,-3.010284901E-2,9.408890009E-1,6.715862155E-1
7.661620008E0,-5.238524675E-1,7.837626338E-1,5.799735785E-1
7.666678029E0,-9.057494402E-1,5.813626051E-1,4.377608895E-1
7.671736049E0,-1.148096919E0,4.567267299E-1,2.252408117E-1
7.676794018E0,-1.301494837E0,4.652488530E-1,-6.238032877E-2
7.681869174E0,-1.405357957E0,5.781667829E-1,-3.899488747E-1
7.686927143E0,-1.458088636E0,7.134552598E-1,-6.855595112E-1
7.691985216E0,-1.465545416E0,8.194489479E-1,-8.826332092E-1
7.697043185E0,-1.473002195E0,9.344974160E-1,-9.667890668E-1
7.702101206E0,-1.532656908E0,1.052209139E0,-9.769090414E-1
7.707159174E0,-1.646107554E0,9.781731963E-1,-9.486795664E-1
7.712195737E0,-1.795244455E0,5.435457230E-1,-8.975469470E-1
7.717253706E0,-1.965154052E0,-2.149219066E-1,-8.373595476E-1
7.722311726E0,-2.158499479E0,-1.107612729E0,-7.414858341E-1
7.727369695E0,-2.402977467E0,-1.896440268E0,-5.902184248E-1
7.732427768E0,-2.678880930E0,-2.392320395E0,-4.000688791E-1
7.737485737E0,-2.965969086E0,-2.578741550E0,-2.109845877E-1
7.742519174E0,-3.262645245E0,-2.552109957E0,-4.160769284E-2
7.747577143E0,-3.521504164E0,-2.418419361E0,1.176492050E-1
7.752635216E0,-3.685022116E0,-2.250640631E0,2.662534714E-1
7.757693185E0,-3.737752676E0,-2.081795931E0,3.876934946E-1
7.762751206E0,-3.736154795E0,-1.950768709E0,4.846324921E-1
7.767809174E0,-3.740948439E0,-1.891113997E0,5.442872643E-1
7.772920424E0,-3.817114830E0,-1.905495048E0,5.346998572E-1
7.777978445E0,-4.027504444E0,-1.970476151E0,4.707840383E-1
7.783036466E0,-4.396085739E0,-2.103101492E0,3.919545412E-1
7.788094435E0,-4.904748917E0,-2.275141478E0,3.871608675E-1
7.793152456E0,-5.497568130E0,-2.413625717E0,5.357651711E-1
7.798210476E0,-6.095180988E0,-2.570219278E0,8.100705147E-1
7.803246779E0,-6.618758202E0,-2.783804893E0,1.109409571E0
7.808304747E0,-6.966033936E0,-2.957975388E0,1.284112811E0
7.813362768E0,-7.103985786E0,-3.073556423E0,1.283580184E0
7.818420789E0,-7.084278107E0,-3.107645035E0,1.151487470E0
7.823478810E0,-7.036873817E0,-2.899385929E0,9.613379240E-1
7.828536779E0,-7.013438225E0,-2.397646904E0,7.557420135E-1
7.833588185E0,-6.964968681E0,-1.667941332E0,5.815714598E-1
7.838646154E0,-6.840865612E0,-8.578084111E-1,4.574682415E-1
7.843704174E0,-6.632606030E0,-8.815555274E-2,3.685187399E-1
7.848762195E0,-6.382802010E0,5.376867652E-1,2.859608233E-1
7.853820216E0,-6.175075531E0,8.615269065E-1,1.810323745E-1
7.858878185E0,-6.018481731E0,7.310320735E-1,2.390600927E-2
7.863930581E0,-5.944446087E0,1.446045339E-1,-1.907445788E-1
7.868988549E0,-5.965751171E0,-6.617999673E-1,-3.872856796E-1
7.874046570E0,-6.016883850E0,-1.404288650E0,-5.033994317E-1
7.879104591E0,-6.017949581E0,-1.907625556E0,-5.332267880E-1
7.884162612E0,-5.879997730E0,-2.112156153E0,-5.097910166E-1
7.889220633E0,-5.607822895E0,-2.092981339E0,-4.645173252E-1
7.894281049E0,-5.307950974E0,-2.006162643E0,-3.819594085E-1
7.899339018E0,-4.985176563E0,-2.151571035E0,-2.722372711E-1
7.904397039E0,-4.595822334E0,-2.513760328E0,-1.630477309E-1
7.909455112E0,-4.151607513E0,-2.864232063E0,-1.337821130E-2
7.914513081E0,-3.663184404E0,-3.100720644E0,1.267039329E-1
7.919571101E0,-3.136411428E0,-3.191268206E0,2.055334300E-1
7.924623185E0,-2.578746080E0,-3.196594477E0,2.305671424E-1
7.929681206E0,-2.039722681E0,-3.131613493E0,2.129902840E-1
7.934739174E0,-1.536385298E0,-2.973954201E0,1.272365749E-1
7.939797195E0,-1.058082104E0,-2.734802723E0,-4.160769284E-2
7.944855216E0,-6.010839939E-1,-2.443985701E0,-2.477361858E-1
7.949913237E0,-1.648586839E-1,-2.127069712E0,-4.591909945E-1
7.954974904E0,2.212993503E-1,-1.853297114E0,-6.381552815E-1
7.960032924E0,5.675100088E-1,-1.582187533E0,-7.638563514E-1
7.965090893E0,8.988069892E-1,-1.271130681E0,-8.378921747E-1
7.970148914E0,1.204005003E0,-8.711242080E-1,-8.671869636E-1
7.975206935E0,1.449548244E0,-4.625956714E-1,-8.480122089E-1
7.980264904E0,1.617859840E0,-1.483429223E-1,-7.856942415E-1
7.985324331E0,1.725984097E0,4.127396643E-2,-6.749068499E-1
7.990382351E0,1.820259929E0,1.206360981E-1,-5.215088725E-1
7.995440320E0,1.909209371E0,1.472676992E-1,-3.340225518E-1
8.000498341E0,1.986441016E0,1.999982297E-1,-1.289593130E-1
8.005556362E0,2.041301966E0,2.719035149E-1,7.983235270E-2
8.010614383E0,2.088173389E0,3.246340752E-1,2.641229331E-1
8.015670216E0,2.144632339E0,3.422109187E-1,4.137924612E-1
8.020728185E0,2.200026274E0,3.304930329E-1,5.197861195E-1
8.025786206E0,2.238908291E0,3.001330197E-1,5.852999091E-1
8.030844226E0,2.262344122E0,2.841540575E-1,5.954198837E-1
8.035902247E0,2.273529291E0,2.985351086E-1,5.315040350E-1
8.040960216E0,2.289508343E0,3.235687912E-1,3.908892870E-1
8.046019747E0,2.325727224E0,3.640488088E-1,1.682492197E-1
8.051077716E0,2.392306089E0,4.386172593E-1,-1.044582352E-1
8.056135737E0,2.495636702E0,5.541983247E-1,-3.782309592E-1
8.061193758E0,2.617076635E0,6.969436407E-1,-6.136541963E-1
8.066251779E0,2.726266384E0,8.652552962E-1,-7.904879451E-1
8.071309747E0,2.815748215E0,1.064992309E0,-9.108627439E-1
8.076368445E0,2.874337912E0,1.323851347E0,-9.939532876E-1
8.081426414E0,2.908958912E0,1.633310437E0,-1.052542686E0
8.086484435E0,2.920144320E0,1.955019832E0,-1.080239654E0
8.091542456E0,2.895110607E0,2.258620024E0,-1.077576399E0
8.096600476E0,2.769409418E0,2.499902248E0,-1.046151161E0
8.101658445E0,2.476994753E0,2.643180132E0,-9.721153378E-1
8.106716362E0,2.009343863E0,2.667681217E0,-8.607953191E-1
8.111774331E0,1.426645041E0,2.551034689E0,-7.159194946E-1
8.116832351E0,7.826932669E-1,2.324133635E0,-5.598583817E-1
8.121890372E0,7.482559979E-2,2.062078953E0,-4.320267737E-1
8.126948393E0,-6.969577074E-1,1.815470457E0,-3.537299037E-1
8.132006414E0,-1.460219145E0,1.613602996E0,-3.121846318E-1
8.137057976E0,-2.144651175E0,1.414398670E0,-2.578561902E-1
8.142115945E0,-2.748122692E0,1.199215412E0,-2.056582868E-1
8.147173966E0,-3.215240955E0,1.024512291E0,-1.646456271E-1
8.152231987E0,-3.245600939E0,1.029305935E0,2.497127466E-2
8.157290008E0,-2.432272196E0,1.561937690E0,5.261777639E-1
8.162347976E0,-8.407683372E-1,2.247434616E0,1.210077047E0
8.167413445E0,6.958742738E-1,2.128657818E0,1.574397087E0
8.172471414E0,1.202939749E0,1.346754551E0,1.234045386E0
8.177529435E0,6.468721628E-1,2.719035149E-1,3.924871981E-1
8.182587456E0,-1.504776329E-1,-9.414315820E-1,-2.685088217E-1
8.187645476E0,-6.681956649E-1,-1.754227519E0,-3.750351667E-1
8.192703445E0,-6.820440888E-1,-1.830393910E0,-1.859509051E-1
8.197759122E0,-2.836355865E-1,-1.533717990E0,-1.326877326E-1
8.202817091E0,2.585835457E-1,-1.198160052E0,-3.404141068E-1
8.207875112E0,7.416806221E-1,-7.869684100E-1,-6.269699931E-1
8.212933133E0,1.080967069E0,-1.078629270E-1,-8.048689961E-1
8.217991154E0,1.507605076E0,1.133701801E0,-9.268416762E-1
8.223049122E0,2.500430346E0,3.043186665E0,-1.183037519E0
8.228107247E0,3.974222422E0,5.052805901E0,-1.609675527E0
8.233165216E0,5.248810291E0,6.359883785E0,-2.023530483E0
8.238223237E0,5.834705353E0,6.841382980E0,-2.115143299E0
8.243281258E0,5.705275536E0,6.743379116E0,-1.758279800E0
8.248339279E0,5.148142815E0,6.295968533E0,-1.035498500E0
8.253397247E0,4.475961685E0,5.557740688E0,-1.193719283E-1
8.258457143E0,3.870359421E0,4.505793095E0,8.468220830E-1
8.263515112E0,3.528409719E0,3.157702446E0,1.809287786E0
8.268573133E0,3.634936094E0,1.781914711E0,2.647650003E0
8.273631154E0,4.121761322E0,7.565984130E-1,3.113170147E0
8.278689174E0,4.763050079E0,2.287603468E-1,3.037536383E0
8.283747143E0,5.373978615E0,2.106508762E-1,2.488925695E0
8.288797508E0,5.861336708E0,5.723078251E-1,1.700098157E0
8.293855424E0,6.201156139E0,1.161398649E0,9.592073560E-1
8.298913289E0,6.389174938E0,1.724922895E0,4.457503557E-1
8.303971154E0,6.432318211E0,2.090840816E0,1.831628978E-1
8.309029018E0,6.277854919E0,2.247967482E0,1.687818468E-1
8.314086883E0,5.910339355E0,2.150495768E0,3.317671716E-1
8.319130685E0,5.451743126E0,1.699889302E0,5.741146207E-1
8.324188601E0,5.051736832E0,9.717816710E-1,8.287125826E-1
8.329246414E0,4.776898861E0,3.145140409E-1,1.055613756E0
8.334304331E0,4.638414383E0,3.541501611E-2,1.180782199E0
8.339362143E0,4.625631332E0,2.287603468E-1,1.171727538E0
8.344420060E0,4.654393196E0,7.198468447E-1,1.034308434E0
8.349478445E0,4.626696587E0,1.180573344E0,8.233862519E-1
8.354536362E0,4.473298550E0,1.427714467E0,6.023440957E-1
8.359594174E0,4.171296120E0,1.470325112E0,4.404240549E-1
8.364652091E0,3.735603571E0,1.401615620E0,4.068682492E-1
8.369709956E0,3.225874901E0,1.313198686E0,5.437545776E-1
8.374767820E0,2.738516808E0,1.183236599E0,8.255168200E-1
8.379833758E0,2.370468378E0,9.712489843E-1,1.141367435E0
8.384891622E0,2.123859644E0,6.852257252E-1,1.368801236E0
8.389949435E0,1.960874677E0,3.821583092E-1,1.464142323E0
8.395007351E0,1.817064166E0,1.121139899E-1,1.447098136E0
8.400065164E0,1.632240891E0,-5.459975451E-2,1.382649660E0
8.405123081E0,1.424514532E0,-8.495976776E-2,1.318733931E0
8.410196935E0,1.211994410E0,1.304448396E-2,1.253220081E0
8.415254799E0,9.952133298E-1,2.181077152E-1,1.170662284E0
8.420312664E0,7.747037411E-1,4.636509418E-1,1.050820112E0
8.425370529E0,5.334215760E-1,6.964110732E-1,9.006178975E-1
8.430428445E0,2.612467110E-1,9.142574072E-1,7.434915304E-1
8.435486310E0,-4.341864213E-2,1.150213361E0,5.560051203E-1
8.440544904E0,-3.539429605E-1,1.465531349E0,2.939502895E-1
8.445602768E0,-6.234545708E-1,1.827720881E0,-3.574874252E-2
8.450660633E0,-8.279852271E-1,2.108417749E0,-4.021993876E-1
8.455718497E0,-9.691326022E-1,2.189910412E0,-7.590626478E-1
8.460776414E0,-1.053288460E0,2.019468307E0,-1.047216415E0
8.465834279E0,-1.128922105E0,1.602417707E0,-1.240029097E0
8.470891779E0,-1.259416819E0,1.010663748E0,-1.332174420E0
8.475949643E0,-1.438381195E0,3.603203893E-1,-1.333239555E0
8.481007508E0,-1.574202299E0,-2.639240324E-1,-1.259736419E0
8.486065372E0,-1.679663301E0,-8.194589615E-1,-1.132970095E0
8.491123289E0,-1.850638151E0,-1.294033885E0,-9.614627361E-1
8.496181154E0,-2.147846937E0,-1.698833823E0,-7.606605887E-1
8.501242351E0,-2.540396452E0,-1.998172998E0,-5.497384071E-1
8.506300216E0,-2.900988340E0,-2.108960390E0,-3.334898949E-1
8.511358081E0,-3.116703987E0,-2.029598236E0,-1.342856139E-1
8.516415945E0,-3.183815718E0,-1.814415097E0,3.668917343E-2
8.521473862E0,-3.167304277E0,-1.548099160E0,1.719776392E-1
8.526531726E0,-3.123628378E0,-1.358482242E0,2.816997766E-1
8.531589956E0,-3.099659920E0,-1.325459003E0,3.898240328E-1
8.536647820E0,-3.165706158E0,-1.410147429E0,4.910240471E-1
8.541705685E0,-3.386748314E0,-1.516673803E0,5.970177650E-1
8.546763549E0,-3.709523201E0,-1.566741228E0,6.939567327E-1
8.551821466E0,-4.038156986E0,-1.525195956E0,7.344368100E-1
8.556879331E0,-4.331104755E0,-1.472465515E0,6.811736226E-1
8.561962404E0,-4.656542778E0,-1.627993941E0,5.517441034E-1
8.567020268E0,-5.098093987E0,-1.994444489E0,4.143250883E-1
8.572078133E0,-5.639780521E0,-2.340655088E0,3.333650529E-1
8.577135997E0,-6.155900955E0,-2.625080347E0,3.397566378E-1
8.582193914E0,-6.487197876E0,-2.897255182E0,4.063356221E-1
8.587251779E0,-6.595854759E0,-2.994194269E0,5.133945942E-1
8.592296206E0,-6.582538605E0,-2.739063501E0,5.927567482E-1
8.597354122E0,-6.490393639E0,-2.319882393E0,5.139272213E-1
8.602411987E0,-6.354572296E0,-2.021608829E0,2.896892428E-1
8.607469851E0,-6.336462975E0,-1.817610741E0,4.787444323E-2
8.612527716E0,-6.432336807E0,-1.661017060E0,-1.412098408E-1
8.617585581E0,-6.565495014E0,-1.479389668E0,-2.450730354E-1
8.622642351E0,-6.674684525E0,-1.148625255E0,-2.722372711E-1
8.627700268E0,-6.620888233E0,-6.676588655E-1,-2.887488306E-1
8.632758133E0,-6.341256618E0,-2.133240104E-1,-3.366856873E-1
8.637815997E0,-5.982263088E0,-1.488755643E-1,-4.767678380E-1
8.642873862E0,-5.723936558E0,-5.797746778E-1,-6.424162984E-1
8.647931726E0,-5.602496147E0,-1.225324273E0,-7.217784524E-1
8.652997195E0,-5.599300385E0,-1.569936991E0,-6.157847047E-1
8.658055060E0,-5.551896095E0,-1.811751842E0,-4.607889056E-1
8.663112924E0,-5.361214161E0,-2.321480274E0,-4.746373296E-1
8.668170789E0,-5.079452038E0,-2.797653198E0,-5.609236360E-1
8.673228654E0,-4.752948761E0,-3.066632271E0,-5.790331364E-1
8.678286518E0,-4.401944637E0,-3.187539577E0,-5.071278811E-1
8.683324956E0,-4.025373936E0,-3.239737749E0,-3.510667682E-1
8.688382820E0,-3.587017775E0,-3.256249189E0,-1.918098480E-1
8.693440685E0,-3.096464157E0,-3.262108088E0,-1.124477088E-1
8.698498549E0,-2.575017452E0,-3.278087139E0,-1.167087629E-1
8.703556466E0,-2.063158512E0,-3.228552341E0,-1.486666799E-1
8.708614331E0,-1.588583350E0,-3.075154543E0,-2.029951215E-1
8.713678966E0,-1.148629546E0,-2.915897369E0,-3.127172589E-1
8.718736831E0,-7.294482589E-1,-2.811501503E0,-5.039320588E-1
8.723794695E0,-3.438229561E-1,-2.736400604E0,-7.105931640E-1
8.728852560E0,-1.092810649E-2,-2.649049044E0,-8.618605733E-1
8.733910476E0,2.974656820E-1,-2.465823650E0,-9.540058970E-1
8.738968341E0,6.191753149E-1,-2.040250778E0,-9.918227196E-1
8.744027247E0,9.430153966E-1,-1.398962140E0,-9.689195752E-1
8.749085112E0,1.216255546E0,-7.603368163E-1,-8.767742515E-1
8.754142976E0,1.408002973E0,-2.458145469E-1,-7.057994604E-1
8.759200841E0,1.549150348E0,1.323540062E-1,-4.719741642E-1
8.764258758E0,1.661002994E0,3.970719874E-1,-2.131151259E-1
8.769316570E0,1.742495656E0,5.840257406E-1,4.734181240E-2
8.774374904E0,1.799487352E0,6.889542341E-1,2.982113361E-1
8.779432768E0,1.852217793E0,6.990742087E-1,5.123293400E-1
8.784490633E0,1.895360947E0,6.223752499E-1,6.657272577E-1
8.789548497E0,1.915601015E0,4.876193702E-1,7.493504882E-1
8.794606414E0,1.907611489E0,3.358193040E-1,7.663946748E-1
8.799664226E0,1.888436794E0,2.031940222E-1,7.269799113E-1
8.804700737E0,1.881512642E0,1.318213642E-1,6.476178169E-1
8.809758654E0,1.912405133E0,1.259624213E-1,5.213840604E-1
8.814816518E0,2.010941744E0,1.808234900E-1,3.365608454E-1
8.819874331E0,2.172861814E0,2.937414348E-1,9.634393454E-2
8.824932247E0,2.380588055E0,4.407477975E-1,-1.502645761E-1
8.829990112E0,2.609619856E0,6.021352410E-1,-3.824920356E-1
8.835075112E0,2.831727266E0,7.555330992E-1,-5.966099501E-1
8.840132976E0,3.041584253E0,9.121268988E-1,-7.723784447E-1
8.845190893E0,3.226407528E0,1.098548055E0,-8.922206163E-1
8.850248706E0,3.374479055E0,1.308405042E0,-9.476143122E-1
8.855306622E0,3.466624498E0,1.525186181E0,-9.417553544E-1
8.860364487E0,3.458635092E0,1.716400862E0,-8.858290315E-1
8.865434331E0,3.283399105E0,1.850091457E0,-8.006079793E-1
8.870492195E0,2.883392572E0,1.889506221E0,-7.111258507E-1
8.875550060E0,2.241571426E0,1.831449270E0,-6.269699931E-1
8.880607924E0,1.474049211E0,1.695095658E0,-5.135194659E-1
8.885665841E0,7.965416312E-1,1.558741927E0,-3.531972766E-1
8.890723654E0,2.969330549E-1,1.532110333E0,-1.886140555E-1
8.895752560E0,-1.073344573E-1,1.613070250E0,-6.238032877E-2
8.900810476E0,-5.856377482E-1,1.686040878E0,3.562391177E-2
8.905868341E0,-1.217338920E0,1.696160913E0,9.527867287E-2
8.910926206E0,-1.934261322E0,1.648223996E0,9.740920365E-2
8.915984070E0,-2.659173250E0,1.564600825E0,7.024497539E-2
8.921041935E0,-3.395803213E0,1.463400841E0,7.716919482E-2
8.926114591E0,-4.060527325E0,1.408007026E0,1.437481493E-1
8.931172456E0,-4.214457989E0,1.804817677E0,3.136577010E-1
8.936230320E0,-3.215773582E0,2.677801132E0,7.802430987E-1
8.941288185E0,-1.372334838E0,2.894582272E0,1.451891899E0
8.946346101E0,-1.110628843E-1,1.955552578E0,1.864681363E0
8.951403966E0,-6.234545708E-1,5.723078251E-1,1.539775968E0
8.956464904E0,-2.202175140E0,-1.060208440E0,6.774451137E-1
8.961522768E0,-3.034146309E0,-2.261825562E0,1.032681465E-1
8.966580633E0,-2.393922806E0,-2.422147751E0,2.443864383E-2
8.971638497E0,-1.076724172E0,-2.268749952E0,-7.782664895E-2
8.976696414E0,2.276909202E-1,-2.100970745E0,-4.006014764E-1
8.981754279E0,1.122512341E0,-1.795772791E0,-7.340289950E-1
8.986810529E0,1.517725110E0,-1.406951666E0,-8.655890226E-1
8.991868393E0,1.525181890E0,-8.604715466E-1,-8.863616586E-1
8.996926258E0,1.796824098E0,4.151814580E-1,-1.045085788E0
9.001984122E0,3.286062241E0,2.928670645E0,-1.574521780E0
9.007042039E0,5.269050121E0,5.256270885E0,-2.229658842E0
9.012099904E0,6.474928379E0,6.403027534E0,-2.492779016E0
9.017161622E0,6.531387329E0,6.654429436E0,-2.195570469E0
9.022219487E0,5.820856571E0,6.311414719E0,-1.464799643E0
9.027277351E0,5.177970409E0,5.502879620E0,-4.714415073E-1
9.032335216E0,4.867978573E0,4.388081074E0,6.236493587E-1
9.037393133E0,4.612847805E0,3.002173901E0,1.708087683E0
9.042450997E0,4.374228954E0,1.425583959E0,2.712098360E0
9.047509695E0,4.377424717E0,-1.424839795E-1,3.467902899E0
9.052567560E0,4.689014435E0,-1.496966481E0,3.674031258E0
9.057625424E0,5.128968239E0,-2.394983530E0,3.217033148E0
9.062683289E0,5.508202076E0,-2.612297297E0,2.260426760E0
9.067741206E0,5.764397621E0,-2.040250778E0,1.107279062E0
9.072799070E0,6.036039829E0,-1.055947423E0,1.107249856E-1
9.077856206E0,6.444036007E0,-1.669850498E-1,-5.300309658E-1
9.082914070E0,6.824335098E0,5.621878505E-1,-8.591974378E-1
9.087971935E0,6.946307659E0,1.209335446E0,-8.938185573E-1
9.093029799E0,6.781191826E0,1.668464065E0,-6.988753080E-1
9.098087716E0,6.428589821E0,1.732912421E0,-3.867530823E-1
9.103145581E0,6.015267372E0,1.389364958E0,-2.722663805E-2
9.108204591E0,5.648283958E0,9.243774414E-1,3.307018876E-1
9.113262456E0,5.402740955E0,6.021352410E-1,6.662598848E-1
9.118320320E0,5.255201817E0,5.504699349E-1,9.368368387E-1
9.123378185E0,5.063987255E0,7.912194729E-1,1.057211637E0
9.128436101E0,4.798203945E0,1.140625954E0,9.741210341E-1
9.133493966E0,4.491407871E0,1.318524957E0,7.562747002E-1
9.138558966E0,4.159578323E0,1.199748158E0,5.325693488E-1
9.143616883E0,3.771822453E0,9.568679929E-1,4.095313847E-1
9.148674747E0,3.291921139E0,8.013394475E-1,4.287061393E-1
9.153732612E0,2.733723164E0,7.336952090E-1,5.464177132E-1
9.158790476E0,2.226657867E0,6.079941988E-1,6.939567327E-1
9.163848341E0,1.870859861E0,3.571246266E-1,8.185926080E-1
9.168901622E0,1.666329384E0,-3.116394952E-2,8.771820664E-1
9.173959487E0,1.520388246E0,-5.392946601E-1,8.936936855E-1
9.179017351E0,1.335564971E0,-1.021326303E0,9.123357534E-1
9.184075216E0,1.075108051E0,-1.341438055E0,9.517505169E-1
9.189133133E0,7.624532580E-1,-1.445833921E0,9.938284159E-1
9.194190997E0,4.258299172E-1,-1.358482242E0,9.853063226E-1
9.199251570E0,9.932666272E-2,-1.083644152E0,8.825083971E-1
9.204309435E0,-1.536734104E-1,-5.893620253E-1,6.806409359E-1
9.209367299E0,-3.155934811E-1,1.334192604E-1,4.047377110E-1
9.214425164E0,-4.279787838E-1,9.579331875E-1,8.036497980E-2
9.219483029E0,-5.345050693E-1,1.655680895E0,-2.679761946E-1
9.224540945E0,-6.815114617E-1,2.013076782E0,-6.157847047E-1
9.229597976E0,-9.036188722E-1,1.888440847E0,-9.034058452E-1
9.234655841E0,-1.118269444E0,1.259402871E0,-1.069586873E0
9.239713706E0,-1.163543224E0,4.034635723E-1,-1.107403755E0
9.244771570E0,-1.085246325E0,-3.619282842E-1,-1.047749043E0
9.249829487E0,-1.048494697E0,-9.307789803E-1,-9.103300571E-1
9.254887351E0,-1.128922105E0,-1.280718088E0,-7.201805115E-1
9.259947456E0,-1.340909481E0,-1.395233750E0,-5.225741267E-1
9.265005320E0,-1.633324385E0,-1.378189564E0,-3.787635863E-1
9.270063185E0,-1.945979238E0,-1.311610579E0,-2.876835763E-1
9.275121049E0,-2.251177549E0,-1.225324273E0,-2.184414417E-1
9.280178914E0,-2.529211044E0,-1.174191713E0,-1.273614019E-1
9.285236831E0,-2.715099812E0,-1.174191713E0,-1.284558047E-2
9.290296414E0,-2.768895388E0,-1.199225307E0,1.027355194E-1
9.295354435E0,-2.766765118E0,-1.226389527E0,1.826302707E-1
9.300412508E0,-2.816832542E0,-1.236509562E0,2.305671424E-1
9.305470529E0,-2.964371204E0,-1.208280087E0,2.875587344E-1
9.310528601E0,-3.176358938E0,-1.138505220E0,3.903566301E-1
9.315586570E0,-3.395803213E0,-1.033044219E0,5.346998572E-1
9.320620008E0,-3.583822250E0,-8.908316493E-1,6.849020123E-1
9.325678029E0,-3.717512608E0,-7.470210195E-1,8.100705147E-1
9.330736049E0,-3.816049576E0,-6.628651619E-1,8.798452020E-1
9.335794070E0,-3.931630611E0,-7.022799850E-1,8.622683883E-1
9.340852091E0,-4.134562969E0,-9.424968958E-1,7.642641664E-1
9.345910164E0,-4.508471012E0,-1.326524258E0,6.619988680E-1
9.350967820E0,-5.070930004E0,-1.662082314E0,6.619988680E-1
9.356025893E0,-5.678662777E0,-1.885254979E0,7.477526069E-1
9.361083914E0,-6.136726379E0,-2.123341560E0,8.239188790E-1
9.366141935E0,-6.351909161E0,-2.446116447E0,8.564094305E-1
9.371199956E0,-6.344985008E0,-2.753977537E0,8.287125826E-1
9.376258029E0,-6.183598042E0,-2.864764690E0,7.328388691E-1
9.381317091E0,-5.973741055E0,-2.735335350E0,5.847672224E-1
9.386375164E0,-5.814484119E0,-2.512162447E0,3.871608675E-1
9.391433185E0,-5.740980625E0,-2.314023495E0,1.773039550E-1
9.396491206E0,-5.740980625E0,-2.137189865E0,3.133372869E-3
9.401549279E0,-5.796374321E0,-1.894842386E0,-7.143507153E-2
9.406607299E0,-5.835256577E0,-1.524130702E0,7.927059196E-3
9.411685112E0,-5.770275593E0,-1.102818966E0,1.203123629E-1
9.416743133E0,-5.621671200E0,-8.157305717E-1,1.346934140E-1
9.421801154E0,-5.493306637E0,-7.901641726E-1,7.876709104E-2
9.426859226E0,-5.421934128E0,-1.027185202E0,2.497127466E-2
9.431917247E0,-5.400096416E0,-1.470867515E0,6.329163443E-3
9.436975268E0,-5.430988789E0,-1.893244505E0,5.639655143E-2
9.442028237E0,-5.427260399E0,-2.157429934E0,1.970113367E-1
9.447086310E0,-5.287711143E0,-2.503640413E0,2.689166069E-1
9.452144331E0,-5.052287579E0,-2.867427826E0,2.401544899E-1
9.457202351E0,-4.726316929E0,-3.096992254E0,1.538681686E-1
9.462260372E0,-4.321517467E0,-3.061306000E0,6.545129418E-2
9.467318445E0,-3.842148304E0,-2.866895437E0,5.796531681E-3
9.472412456E0,-3.310049295E0,-2.634667873E0,-3.734663874E-2
9.477470476E0,-2.757177591E0,-2.343851089E0,-1.017950773E-1
9.482528497E0,-2.224013090E0,-2.046642542E0,-2.498667389E-1
9.487586518E0,-1.761688709E0,-1.826133013E0,-4.645173252E-1
9.492644591E0,-1.377661109E0,-1.800566554E0,-6.802331805E-1
9.497702612E0,-1.062343121E0,-1.980063438E0,-8.677195311E-1
9.502720581E0,-8.008209467E-1,-2.227204800E0,-1.046151161E0
9.507778549E0,-5.568755865E-1,-2.408831835E0,-1.205408096E0
9.512836570E0,-3.070713878E-1,-2.404038429E0,-1.325782776E0
9.517894643E0,-4.128811508E-2,-2.078067780E0,-1.404612303E0
9.522952664E0,2.202340811E-1,-1.488976955E0,-1.427515507E0
9.528010685E0,4.332867861E-1,-9.238547683E-1,-1.357740760E0
9.533089904E0,5.451394916E-1,-5.648609996E-1,-1.196885943E0
9.538147924E0,5.664448142E-1,-4.269093573E-1,-9.657238126E-1
9.543205945E0,5.733689666E-1,-4.029408991E-1,-6.994078755E-1
9.548264018E0,6.021310687E-1,-3.949514329E-1,-4.304288924E-1
9.553322039E0,6.463395357E-1,-3.890924752E-1,-1.768961698E-1
9.558380060E0,6.996026635E-1,-4.306377769E-1,3.509128094E-2
9.563453237E0,7.539311051E-1,-5.339683294E-1,1.948807985E-1
9.568511258E0,8.114553690E-1,-6.602020264E-1,2.902218699E-1
9.573569279E0,8.854911923E-1,-7.283789515E-1,3.093966246E-1
9.578627351E0,9.824301600E-1,-6.676588655E-1,2.524050176E-1
9.583685372E0,1.110794425E0,-4.668567479E-1,1.213776320E-1
9.588743445E0,1.280703902E0,-1.616587192E-1,-6.024980173E-2
9.593772612E0,1.500148177E0,2.149119228E-1,-2.844877839E-1
9.598830633E0,1.768061996E0,6.213099957E-1,-5.428141952E-1
9.603888654E0,2.058346033E0,1.051676512E0,-8.054016829E-1
9.608946726E0,2.314542055E0,1.491630316E0,-1.041890144E0
9.614004747E0,2.527061939E0,1.931584120E0,-1.229909062E0
9.619062820E0,2.702297926E0,2.356624365E0,-1.371589065E0
9.624118393E0,2.849837065E0,2.751304388E0,-1.479713321E0
9.629176414E0,2.984060049E0,3.094851971E0,-1.559608102E0
9.634234487E0,3.094314814E0,3.353710890E0,-1.605947137E0
9.639292508E0,3.134794950E0,3.500717402E0,-1.593163967E0
9.644350529E0,3.054367542E0,3.499119520E0,-1.509008169E0
9.649408601E0,2.789649487E0,3.293523550E0,-1.373186946E0
9.654467612E0,2.331053495E0,2.851971865E0,-1.189429045E0
9.659525685E0,1.793628335E0,2.240510702E0,-9.529405832E-1
9.664583654E0,1.296682835E0,1.597091436E0,-6.903532147E-1
9.669641726E0,8.412827253E-1,1.027175426E0,-4.453425705E-1
9.674699747E0,3.187709451E-1,5.589920282E-1,-2.360182852E-1
9.679757820E0,-3.257135153E-1,2.394129783E-1,-5.705401301E-2
9.684815216E0,-1.059679985E0,1.147771403E-1,8.196288347E-2
9.689873237E0,-1.889520288E0,1.105160862E-1,1.964786947E-1
9.694931258E0,-2.856246948E0,1.201034561E-1,2.960808277E-1
9.699989331E0,-3.910858154E0,5.512239039E-2,3.418871462E-1
9.705047351E0,-4.771058083E0,-9.774292260E-2,3.892914057E-1
9.710105424E0,-4.866399288E0,-3.470145762E-1,7.557420135E-1
9.715161206E0,-3.981698036E0,-7.289115191E-1,1.404487610E0
9.720219279E0,-2.576082706E0,-9.648674130E-1,1.621268630E0
9.725277247E0,-1.616280079E0,-1.043164253E0,9.650663137E-1
9.730335320E0,-1.263145328E0,-1.252488494E0,-8.262033015E-2
9.735393341E0,-8.966946602E-1,-1.205616951E0,-8.043363690E-1
9.740451414E0,-1.664565802E-1,-6.309072971E-1,-1.175580621E0
9.745510737E0,8.641859293E-1,-1.589955688E-1,-1.444559693E0
9.750568758E0,1.946493626E0,1.520613879E-1,-1.605414391E0
9.755626779E0,2.782192707E0,3.533961773E-1,-1.551086068E0
9.760684851E0,3.205102444E0,5.312951803E-1,-1.287433386E0
9.765742872E0,3.118815899E0,2.900130153E-1,-9.689195752E-1
9.770800893E0,2.407752514E0,-4.498125315E-1,-6.269699931E-1
9.775864018E0,2.607489347E0,8.860279322E-1,-7.755742669E-1
9.780922039E0,4.271963596E0,3.772892237E0,-1.461071253E0
9.785980060E0,5.875718117E0,5.919930458E0,-2.125263214E0
9.791038133E0,6.607021332E0,6.968682289E0,-2.369741201E0
9.796096154E0,6.538311958E0,7.311697006E0,-2.043237925E0
9.801154174E0,6.197427750E0,7.072012901E0,-1.208071113E0
9.806195164E0,5.867728233E0,6.422201633E0,-4.586874694E-2
9.811253185E0,5.526844025E0,5.456540585E0,1.267068624E0
9.816311206E0,5.336162090E0,4.017902374E0,2.591190815E0
9.821369226E0,5.484766483E0,2.213346243E0,3.518502951E0
9.826427247E0,5.830976963E0,6.442131400E-1,3.514774323E0
9.831485320E0,6.106347561E0,-1.675176769E-1,2.639660358E0
9.836543081E0,6.200623512E0,-2.889577150E-1,1.356018066E0
9.841601154E0,6.173458576E0,-1.632566303E-1,7.610392570E-2
9.846659174E0,6.150556087E0,3.914344311E-2,-7.723784447E-1
9.851717247E0,6.083976746E0,3.981372416E-1,-1.047749043E0
9.856775216E0,5.928981304E0,8.988111019E-1,-9.119279385E-1
9.861833289E0,5.716993332E0,1.427181840E0,-5.710436702E-1
9.866895008E0,5.491157532E0,1.772327304E0,-1.902119666E-1
9.871953081E0,5.268517971E0,1.849558830E0,1.544007808E-1
9.877011101E0,5.071976185E0,1.740901947E0,4.345650673E-1
9.882069122E0,4.945743084E0,1.608809352E0,6.364325285E-1
9.887127143E0,4.854662895E0,1.631712556E0,7.823736072E-1
9.892185216E0,4.693808079E0,1.770729303E0,8.659968376E-1
9.897258081E0,4.383816242E0,1.898028255E0,8.484199643E-1
9.902316101E0,3.926818132E0,1.911344051E0,7.690578103E-1
9.907374122E0,3.373946667E0,1.776055694E0,6.982178092E-1
9.912432195E0,2.817878962E0,1.517196655E0,6.966198683E-1
9.917490216E0,2.369403124E0,1.179508090E0,7.946241498E-1
9.922548237E0,2.122794390E0,8.024047613E-1,9.448263049E-1
9.927604539E0,2.022127151E0,4.226383269E-1,1.051352620E0
9.932662560E0,1.935308337E0,1.227666214E-1,1.064668417E0
9.937720581E0,1.792030454E0,9.848693386E-3,9.879695177E-1
9.942778654E0,1.612533450E0,1.517501287E-2,8.702579141E-1
9.947836674E0,1.450613379E0,1.009287238E-1,7.504157424E-1
9.952894747E0,1.323314428E0,2.330214083E-1,6.193883419E-1
9.957949799E0,1.198145986E0,3.512656391E-1,4.542724788E-1
9.963007872E0,1.028236508E0,4.471393526E-1,2.566660941E-1
9.968065893E0,7.944111824E-1,5.137183666E-1,2.443864383E-2
9.973123914E0,5.195731521E-1,5.834931135E-1,-2.674435675E-1
9.978181935E0,2.404740900E-1,6.836278439E-1,-6.450794339E-1
9.983240008E0,-1.518915873E-2,7.832300067E-1,-1.080772161E0
9.988296935E0,-2.229155451E-1,7.874910831E-1,-1.514334440E0
9.993354956E0,-3.725850880E-1,6.910846829E-1,-1.870665073E0
9.998412976E0,-4.631324708E-1,5.920152068E-1,-2.100762129E0
1.000347105E1,-5.568755865E-1,4.966741204E-1,-2.169471741E0
1.000852907E1,-7.422314882E-1,3.161119521E-1,-2.094370604E0
1.001358709E1,-1.019732594E0,-6.365448982E-2,-1.906351447E0
1.001864938E1,-1.330256939E0,-6.255810261E-1,-1.657612443E0
1.002370740E1,-1.653031707E0,-1.305751681E0,-1.406210184E0
1.002876542E1,-2.015221596E0,-1.992846727E0,-1.134567976E0
1.003382350E1,-2.438663721E0,-2.505238533E0,-8.181847930E-1
1.003888152E1,-2.889270306E0,-2.779011011E0,-4.788983762E-1
1.004393954E1,-3.296733618E0,-2.844524860E0,-1.582540423E-1
1.004899329E1,-3.607790470E0,-2.727878571E0,1.022028849E-1
1.005405136E1,-3.793146372E0,-2.433865547E0,2.779713571E-1
1.005910933E1,-3.832028627E0,-2.017880440E0,3.573334813E-1
1.006416740E1,-3.757992744E0,-1.613080263E0,3.749103248E-1
1.006922542E1,-3.658390522E0,-1.334513783E0,3.594639897E-1
1.007428344E1,-3.654662132E0,-1.205084205E0,3.557355702E-1
1.007934032E1,-3.789950609E0,-1.162473798E0,3.972808719E-1
1.008439834E1,-4.021112919E0,-1.132113695E0,4.782408774E-1
1.008945641E1,-4.298081398E0,-1.096959949E0,5.703861713E-1
1.009451444E1,-4.612866402E0,-1.236509562E0,6.300409436E-1
1.009957246E1,-5.039504528E0,-1.618939161E0,6.705209613E-1
1.010463053E1,-5.624334335E0,-2.121743441E0,7.717210054E-1
1.010968886E1,-6.254970551E0,-2.641059399E0,9.746537209E-1
1.011474694E1,-6.702381134E0,-3.117764711E0,1.191434860E0
1.011980496E1,-6.875486374E0,-3.419234514E0,1.319799066E0
1.012486298E1,-6.862703323E0,-3.327089310E0,1.351757050E0
1.012992100E1,-6.764698982E0,-2.851981640E0,1.352822304E0
1.013497902E1,-6.633671761E0,-2.278870106E0,1.317668557E0
1.014003876E1,-6.506372929E0,-1.861819267E0,1.205815911E0
1.014509673E1,-6.446185112E0,-1.528924346E0,1.096626520E0
1.015015475E1,-6.473349094E0,-1.114536881E0,1.016731620E0
1.015521282E1,-6.535667419E0,-5.584693551E-1,9.022157788E-1
1.016027084E1,-6.513296604E0,1.611161232E-1,7.642641664E-1
1.016532891E1,-6.319418430E0,8.189163208E-1,5.922240615E-1
1.017038433E1,-6.037123680E0,1.034099579E0,3.275061250E-1
1.017544235E1,-5.790515423E0,7.187815309E-1,2.284074761E-2
1.018050037E1,-5.621671200E0,2.308908850E-1,-1.928751022E-1
1.018555839E1,-5.459751129E0,-2.783050835E-1,-3.191088438E-1
1.019061641E1,-5.214740276E0,-1.023989439E0,-5.449447036E-1
1.019567449E1,-4.922858238E0,-1.824002385E0,-8.245763779E-1
1.020073360E1,-4.611268997E0,-2.416288853E0,-1.031770110E0
1.020579167E1,-4.274113178E0,-2.738531113E0,-1.106871247E0
1.021084964E1,-3.916717052E0,-2.849318504E0,-1.051477432E0
1.021590772E1,-3.523102045E0,-2.862634420E0,-8.980795741E-1
1.022096574E1,-3.113508224E0,-2.869025707E0,-6.946142316E-1
1.022602376E1,-2.729480743E0,-2.864232063E0,-5.204436779E-1
1.023108173E1,-2.369421482E0,-2.883939505E0,-4.352225363E-1
1.023613980E1,-2.039722681E0,-2.927082777E0,-4.671804607E-1
1.024119777E1,-1.759558082E0,-2.831209183E0,-5.539994240E-1
1.024625584E1,-1.516678095E0,-2.578741550E0,-6.477426887E-1
1.025131386E1,-1.270069599E0,-2.226139307E0,-7.313658595E-1
1.025637194E1,-9.861767888E-1,-1.858090878E0,-7.862269282E-1
1.026142923E1,-6.761851311E-1,-1.559284449E0,-8.038037419E-1
1.026648730E1,-3.512798250E-1,-1.348362207E0,-7.761068344E-1
1.027154532E1,-2.158073895E-2,-1.136374831E0,-7.159194946E-1
1.027660334E1,2.900088131E-1,-8.913642168E-1,-6.354920864E-1
1.028166136E1,5.744342208E-1,-5.851009488E-1,-5.433467627E-1
1.028671938E1,8.476743698E-1,-2.522061169E-1,-4.256351888E-1
1.029180350E1,1.119316578E0,4.340448976E-2,-2.669109404E-1
1.029686157E1,1.387763023E0,2.735014260E-1,-7.782664895E-2
1.030191970E1,1.649285078E0,4.529983103E-1,1.155186743E-1
1.030697777E1,1.902285218E0,6.079941988E-1,2.795692682E-1
1.031203589E1,2.155284882E0,7.251731157E-1,3.892914057E-1
1.031709397E1,2.394969225E0,8.482111096E-1,4.132598042E-1
1.032215068E1,2.602695942E0,1.012794375E0,3.466808498E-1
1.032720881E1,2.771007299E0,1.189628124E0,2.342955470E-1
1.033226688E1,2.924405336E0,1.378179789E0,7.770182937E-2
1.033732501E1,3.070878983E0,1.565666080E0,-1.358835101E-1
1.034238308E1,3.213624239E0,1.703617811E0,-3.920793831E-1
1.034744121E1,3.360098124E0,1.749956608E0,-6.599931717E-1
1.035251949E1,3.516159296E0,1.682312489E0,-9.215153456E-1
1.035757756E1,3.643990755E0,1.502282977E0,-1.155340672E0
