"Time (s)","Gyroscope x (rad/s)","Gyroscope y (rad/s)","Gyroscope z (rad/s)"
7.334303500E-2,6.660469174E-1,6.862909794E-1,1.948807985E-1
7.838329500E-2,6.655142307E-1,6.591268182E-1,2.279039770E-1
8.344267000E-2,6.692426801E-1,6.996067762E-1,2.241755575E-1
8.850261800E-2,6.649816632E-1,7.406194806E-1,2.252408117E-1
9.356001400E-2,6.575248241E-1,7.741752863E-1,2.300345004E-1
9.861454500E-2,6.463395357E-1,8.109268546E-1,2.289692312E-1
1.036872020E-1,6.372847557E-1,8.487436771E-1,2.268387079E-1
1.087390770E-1,6.330237389E-1,8.625921607E-1,2.268387079E-1
1.137797020E-1,6.346216202E-1,8.444826603E-1,2.369587123E-1
1.188404310E-1,6.260995269E-1,8.071984053E-1,2.465460747E-1
1.239053790E-1,6.063921452E-1,7.693815827E-1,2.566660941E-1
1.289560040E-1,5.888152719E-1,7.773710489E-1,2.673186958E-1
1.340124100E-1,5.808258057E-1,7.938826084E-1,2.816997766E-1
1.389949100E-1,5.808258057E-1,7.976110578E-1,2.960808277E-1
1.440548060E-1,5.866847634E-1,7.901542187E-1,3.051355779E-1
1.491923580E-1,5.888152719E-1,7.800342441E-1,3.141903281E-1
1.542200660E-1,5.813584328E-1,7.795015574E-1,3.243103027E-1
1.593126700E-1,5.781626701E-1,7.810994983E-1,3.307018876E-1
1.643681910E-1,5.733689666E-1,7.672510743E-1,3.376260996E-1
1.694249100E-1,5.584552884E-1,7.400868535E-1,3.450829685E-1
1.744652750E-1,5.387479067E-1,7.102594376E-1,3.493440151E-1
1.795703270E-1,5.121163130E-1,6.772363186E-1,3.440176845E-1
1.845838680E-1,4.753646851E-1,6.463436484E-1,3.269734681E-1
1.896998060E-1,4.423414767E-1,6.159836054E-1,3.056682050E-1
1.947114200E-1,4.029267430E-1,5.818951726E-1,2.838303149E-1
1.997607430E-1,3.576530516E-1,5.494046211E-1,2.609271407E-1
2.048124100E-1,3.113140762E-1,5.280994177E-1,2.332302779E-1
2.099134520E-1,2.665730417E-1,5.163815022E-1,2.071313262E-1
2.149425140E-1,2.191688120E-1,5.115877986E-1,1.804997325E-1
2.200646500E-1,1.770909131E-1,5.243709683E-1,1.517376304E-1
2.250379310E-1,1.467308998E-1,5.541983247E-1,1.149860471E-1
2.301673580E-1,1.195666641E-1,5.920152068E-1,7.077760994E-2
2.351704310E-1,9.453297406E-2,6.245056987E-1,1.591653563E-2
2.402556910E-1,5.565086752E-2,6.399520636E-1,-4.586874694E-2
2.452761080E-1,7.897929754E-4,6.282341480E-1,-1.060561314E-1
2.503360040E-1,-6.898497045E-2,5.813626051E-1,-1.609172076E-1
2.553704310E-1,-1.584670991E-1,4.998699725E-1,-2.035277635E-1
2.604470970E-1,-2.633955777E-1,3.869519830E-1,-2.354856580E-1
2.655178270E-1,-3.885640204E-1,2.511308789E-1,-2.647804022E-1
2.706147020E-1,-5.329071879E-1,1.227666214E-1,-3.020646274E-1
2.756149620E-1,-6.831093431E-1,1.091395691E-2,-3.398814797E-1
2.807167850E-1,-8.349093795E-1,-9.241660684E-2,-3.824920356E-1
2.857694930E-1,-9.829809666E-1,-1.834966242E-1,-4.298962653E-1
2.908227750E-1,-1.103888392E0,-2.351619154E-1,-4.757025540E-1
2.958882950E-1,-1.174728513E0,-2.074650526E-1,-5.273678303E-1
3.009798060E-1,-1.197098970E0,-9.348186851E-2,-5.699783564E-1
3.059987120E-1,-1.208816886E0,5.299185961E-2,-6.067299843E-1
3.110601180E-1,-1.270069599E0,1.403434724E-1,-6.205784082E-1
3.161169930E-1,-1.403227568E0,1.318213642E-1,-6.003383994E-1
3.211717330E-1,-1.597638011E0,5.885080993E-2,-5.571952462E-1
3.262331910E-1,-1.812288642E0,-2.317447402E-2,-4.884857237E-1
3.312915250E-1,-2.007232189E0,-6.738290936E-2,-4.069930911E-1
3.363154830E-1,-2.163825989E0,-7.057870179E-2,-3.334898949E-1
3.414029310E-1,-2.290592194E0,-4.661027342E-2,-2.786288261E-1
3.464266290E-1,-2.391792297E0,4.522376694E-3,-2.429425120E-1
3.515052220E-1,-2.476480722E0,6.417713314E-2,-2.328224927E-1
3.565655350E-1,-2.544657469E0,1.355497837E-1,-2.306919694E-1
3.616170450E-1,-2.596855402E0,2.111835033E-1,-2.147130072E-1
3.666823060E-1,-2.644792557E0,2.868172228E-1,-1.827551126E-1
3.717819410E-1,-2.687935591E0,3.592551351E-1,-1.342856139E-1
3.768107950E-1,-2.723088980E0,4.338235557E-1,-7.729401439E-2
3.818880870E-1,-2.749720573E0,5.020004511E-1,-1.231294870E-2
3.869031390E-1,-2.764101744E0,5.094572306E-1,4.627654329E-2
3.919844930E-1,-2.764101744E0,4.338235557E-1,9.794183075E-2
3.970378790E-1,-2.750786066E0,3.288951218E-1,1.410849839E-1
4.020790770E-1,-2.727882862E0,2.330214083E-1,1.735755354E-1
4.071366290E-1,-2.690066099E0,1.621813774E-1,1.842281669E-1
4.122091810E-1,-2.641063929E0,1.179729328E-1,1.804997325E-1
4.172679310E-1,-2.580876350E0,8.708029985E-2,1.730429083E-1
4.223274620E-1,-2.506840706E0,7.536239177E-2,1.554660499E-1
4.273469410E-1,-2.422684669E0,8.708029985E-2,1.219102591E-1
4.324263680E-1,-2.339594364E0,1.366150528E-1,7.184287161E-2
4.374854310E-1,-2.267688990E0,2.351519316E-1,1.911232434E-2
4.425555350E-1,-2.212828159E0,3.507330120E-1,-3.468348086E-2
4.476124620E-1,-2.168619633E0,4.008004069E-1,-1.012624428E-1
4.526553270E-1,-2.143585920E0,3.528635502E-1,-1.742330045E-1
4.577125660E-1,-2.140390158E0,2.250319272E-1,-2.392140776E-1
4.627861600E-1,-2.159564972E0,6.524239480E-2,-2.887488306E-1
4.678282950E-1,-2.192587852E0,-9.721028805E-2,-3.068583310E-1
4.728433470E-1,-2.228806734E0,-2.729787827E-1,-2.994014621E-1
4.779577750E-1,-2.269286871E0,-4.764440954E-1,-2.669109404E-1
4.830167330E-1,-2.306571245E0,-6.932252645E-1,-2.168435305E-1
4.881038680E-1,-2.341192007E0,-9.030821323E-1,-1.582540423E-1
4.931508470E-1,-2.371019602E0,-1.096427441E0,-1.017950773E-1
4.981905350E-1,-2.395520687E0,-1.276456952E0,-5.172769725E-2
5.032474100E-1,-2.418423891E0,-1.431985378E0,-6.241770461E-5
5.083029310E-1,-2.436533451E0,-1.575795889E0,4.308075458E-2
5.133629310E-1,-2.445588112E0,-1.716410756E0,6.332075596E-2
5.184208470E-1,-2.441859484E0,-1.826133013E0,6.225549802E-2
5.234785040E-1,-2.426413298E0,-1.888983369E0,4.787444323E-2
5.285377220E-1,-2.398716450E0,-1.906560302E0,2.124285139E-2
5.335921500E-1,-2.354507923E0,-1.873537183E0,-8.584526367E-3
5.386511600E-1,-2.293255329E0,-1.792044401E0,-2.669400536E-2
5.436958470E-1,-2.211762667E0,-1.672734976E0,-4.107506201E-2
5.487677750E-1,-2.110562801E0,-1.533185482E0,-5.012980103E-2
5.538236600E-1,-1.995513916E0,-1.384581208E0,-5.918454006E-2
5.588838680E-1,-1.866084456E0,-1.224791646E0,-5.705401301E-2
5.639415770E-1,-1.730263352E0,-1.065002084E0,-4.586874694E-2
5.690008470E-1,-1.601366401E0,-9.126695395E-1,-3.255295381E-2
5.740549100E-1,-1.486317992E0,-7.811094522E-1,-1.497610845E-2
5.791162640E-1,-1.380856872E0,-6.751157641E-1,2.068109345E-3
5.841711600E-1,-1.283385396E0,-5.946883559E-1,2.071022056E-2
5.892328270E-1,-1.198696852E0,-5.424904227E-1,3.668917343E-2
5.942872020E-1,-1.133715749E0,-5.174567699E-1,4.734181240E-2
5.993303270E-1,-1.083648443E0,-5.185219646E-1,5.852707475E-2
6.043921500E-1,-1.036244273E0,-5.451535583E-1,7.663656026E-2
6.094604310E-1,-9.893726110E-1,-5.840356946E-1,9.155024588E-2
6.145039200E-1,-9.430335760E-1,-6.277114749E-1,1.112576276E-1
6.195754830E-1,-8.950967789E-1,-6.772462726E-1,1.346934140E-1
6.246303270E-1,-8.397030830E-1,-7.161283493E-1,1.602597386E-1
6.296733470E-1,-7.779177427E-1,-7.464883924E-1,1.916850060E-1
6.347361080E-1,-7.086756229E-1,-7.566084266E-1,2.209797651E-1
6.398047540E-1,-6.271830201E-1,-7.416947484E-1,2.524050176E-1
6.448692850E-1,-5.313093066E-1,-6.980188489E-1,2.790366113E-1
6.499210040E-1,-4.263809025E-1,-6.261135936E-1,3.024724126E-1
6.549664720E-1,-3.102671504E-1,-5.360988379E-1,3.221797943E-1
6.600608470E-1,-1.941534281E-1,-4.354314506E-1,3.376260996E-1
6.650830870E-1,-7.857234031E-2,-3.342314065E-1,3.498766422E-1
6.701561600E-1,2.955191024E-2,-2.426187545E-1,3.573334813E-1
6.751987640E-1,1.259582639E-1,-1.589955688E-1,3.653229475E-1
6.802632950E-1,2.154403925E-1,-9.348186851E-2,3.818345368E-1
6.853146500E-1,2.905414402E-1,-4.767553508E-2,4.026072025E-1
6.903509000E-1,3.565877974E-1,-2.051131614E-2,4.207166433E-1
6.954429830E-1,4.162425399E-1,-6.130258553E-3,4.372282624E-1
7.005248060E-1,4.748320282E-1,-8.793417364E-3,4.500114322E-1
7.055475660E-1,5.312910676E-1,-1.411973499E-2,4.569356143E-1
7.106269930E-1,5.856195092E-1,-1.358710323E-2,4.601314366E-1
7.156753270E-1,6.399479508E-1,-2.157657966E-2,4.537398219E-1
7.207034000E-1,6.953416467E-1,-2.690289728E-2,4.382934868E-1
7.257761080E-1,7.533985376E-1,-6.662890315E-3,4.105966687E-1
7.308131390E-1,8.194448352E-1,3.701291233E-2,3.839650750E-1
7.358913160E-1,8.870890737E-1,9.187398106E-2,3.530724347E-1
7.409696500E-1,9.557985663E-1,1.765624434E-1,3.168534636E-1
7.460238680E-1,1.021312237E0,2.846866846E-1,2.891566157E-1
7.510955350E-1,1.079901814E0,3.944088221E-1,2.635902762E-1
7.561166290E-1,1.132632375E0,5.009351373E-1,2.353608161E-1
7.611816290E-1,1.168318629E0,5.909499526E-1,2.167187035E-1
7.662528790E-1,1.186428070E0,6.500720382E-1,2.007397413E-1
7.712974100E-1,1.192819715E0,6.612573266E-1,1.986092180E-1
7.763704830E-1,1.189091325E0,6.239731312E-1,2.092618495E-1
7.814141290E-1,1.180036545E0,5.446109772E-1,2.209797651E-1
7.864821500E-1,1.173644900E0,4.322257042E-1,2.199144810E-1
7.915006390E-1,1.168318629E0,3.006656170E-1,2.140555382E-1
7.965990770E-1,1.171514392E0,1.627140194E-1,1.938155293E-1
8.016714720E-1,1.186960697E0,3.914344311E-2,1.639881581E-1
8.067157430E-1,1.208266020E0,-6.418712437E-2,1.304323524E-1
8.117401700E-1,1.241289258E0,-1.472776681E-1,9.261551499E-2
8.168316290E-1,1.279106140E0,-2.117261142E-1,5.160286650E-2
8.218744930E-1,1.324379802E0,-2.692503631E-1,1.005758531E-2
8.269461600E-1,1.375512362E0,-3.134588003E-1,-2.935716324E-2
8.319882950E-1,1.422383904E0,-3.454166651E-1,-6.078243628E-2
8.370488680E-1,1.466059804E0,-3.619282842E-1,-9.167507291E-2
8.421206910E-1,1.500148177E0,-3.597977459E-1,-1.167087629E-1
8.471786080E-1,1.517725110E0,-3.459493220E-1,-1.422750950E-1
8.522213680E-1,1.507072449E0,-3.230461478E-1,-1.689066887E-1
8.572787640E-1,1.457005024E0,-2.926861346E-1,-1.960709095E-1
8.623358470E-1,1.372316599E0,-2.500755787E-1,-2.258982807E-1
8.674009000E-1,1.241821766E0,-1.829639971E-1,-2.551930547E-1
8.725080870E-1,1.067651272E0,-8.282923698E-2,-2.749004066E-1
8.775100660E-1,8.679143190E-1,4.713291675E-2,-2.951403856E-1
8.825560560E-1,6.559268832E-1,1.845519096E-1,-3.143151402E-1
8.877394410E-1,4.508636296E-1,3.155793250E-1,-3.276309371E-1
8.926857430E-1,2.718993425E-1,4.194425046E-1,-3.308267295E-1
8.977429310E-1,1.339477450E-1,4.934783578E-1,-3.281635940E-1
9.027991290E-1,4.126980901E-2,5.589920282E-1,-3.153804243E-1
9.078570970E-1,-8.264946751E-3,6.154510379E-1,-2.940751612E-1
9.129141810E-1,-2.530916035E-2,6.601920724E-1,-2.780961990E-1
9.179723580E-1,-1.998284459E-2,6.809647083E-1,-2.637151480E-1
9.230452220E-1,-1.199336816E-2,6.591268182E-1,-2.338877618E-1
9.280897020E-1,-8.264946751E-3,5.707099438E-1,-1.768961698E-1
9.331600140E-1,-1.731968671E-2,4.055941105E-1,-1.023277044E-1
9.382195970E-1,-3.542916477E-2,1.834866405E-1,-2.722663805E-2
9.432761080E-1,-7.164813578E-2,-5.992607027E-2,3.881970048E-2
9.483181390E-1,-1.068018302E-1,-2.830987871E-1,9.953972697E-2
9.533761080E-1,-1.307702512E-1,-4.503451288E-1,1.789018512E-1
9.584348060E-1,-1.265092045E-1,-5.504799485E-1,2.721123993E-1
9.634930350E-1,-9.082287550E-2,-5.920251608E-1,3.546703458E-1
9.685484520E-1,-2.584179491E-2,-5.733830929E-1,4.169882238E-1
9.736047540E-1,7.695613056E-2,-4.924230576E-1,4.516092837E-1
9.786657950E-1,2.197014391E-1,-3.555366993E-1,4.686535299E-1
9.837258470E-1,3.965351880E-1,-1.946818978E-1,4.686535299E-1
9.887829830E-1,5.834890008E-1,-5.300185084E-2,4.372282624E-1
9.938536600E-1,7.704427242E-1,4.233922809E-2,3.876934946E-1
9.989117330E-1,9.499396086E-1,9.080871195E-2,3.168534636E-1
1.003969285E0,1.105468035E0,1.147771403E-1,2.193818688E-1
1.009028556E0,1.235430241E0,1.440718919E-1,1.006049886E-1
1.014085900E0,1.338760734E0,1.824213862E-1,-3.734663874E-2
1.019141941E0,1.392023921E0,2.314235121E-1,-1.811572164E-1
1.024201837E0,1.380306005E0,2.772298455E-1,-3.073909581E-1
1.029259077E0,1.289226055E0,2.846866846E-1,-4.064604342E-1
1.034317879E0,1.118251204E0,2.484677136E-1,-4.725067914E-1
1.039357254E0,8.897522092E-1,1.813561171E-1,-5.092583895E-1
1.044432566E0,6.628510952E-1,1.291582137E-1,-5.294983983E-1
1.049487150E0,4.870825708E-1,1.536592692E-1,-5.438794494E-1
1.054545795E0,3.997309506E-1,2.750993073E-1,-5.518689156E-1
1.059615379E0,3.917414844E-1,4.870867431E-1,-5.486731529E-1
1.064664285E0,4.375478327E-1,7.688488960E-1,-5.310962796E-1
1.069716264E0,5.179752707E-1,1.086297631E0,-5.012689233E-1
1.074777931E0,6.111858487E-1,1.415463924E0,-4.773004651E-1
1.079819181E0,7.145164013E-1,1.735575676E0,-4.746373296E-1
1.084891368E0,8.263690472E-1,2.006685257E0,-4.815615416E-1
1.089969702E0,9.408848882E-1,2.174464226E0,-4.757025540E-1
1.095007514E0,1.060194373E0,2.243173599E0,-4.533320367E-1
1.100068868E0,1.186428070E0,2.245304346E0,-4.091235995E-1
1.105112983E0,1.323314428E0,2.190443277E0,-3.521319926E-1
1.110183035E0,1.465527177E0,2.101493835E0,-2.908793390E-1
1.115225483E0,1.593358755E0,1.979521036E0,-2.322898656E-1
1.120295952E0,1.688699841E0,1.814405084E0,-1.726351082E-1
1.125353608E0,1.731842995E0,1.619994640E0,-1.097845584E-1
1.130396941E0,1.715331435E0,1.418659806E0,-4.214032367E-2
1.135457097E0,1.647687316E0,1.216792345E0,2.497127466E-2
1.140540066E0,1.535834551E0,9.984132648E-1,7.663656026E-2
1.145597827E0,1.397350192E0,7.715121508E-1,1.053986698E-1
1.150655691E0,1.240756631E0,5.419477820E-1,1.096597239E-1
1.155713504E0,1.076705933E0,3.187751174E-1,9.048498422E-2
1.160771316E0,9.233080149E-1,1.179729328E-1,5.479865521E-2
1.165829181E0,7.976069450E-1,-3.968606144E-2,7.394426968E-3
1.170836056E0,6.932111382E-1,-1.318313479E-1,-5.439085513E-2
1.175893868E0,6.170447469E-1,-1.520713568E-1,-1.273614019E-1
1.180951733E0,5.845542550E-1,-1.174502969E-1,-2.099193335E-1
1.186009545E0,5.984026790E-1,-1.625026204E-2,-3.015320003E-1
1.191067358E0,6.543290019E-1,1.515287459E-1,-3.910141289E-1
1.196125222E0,7.443437576E-1,3.789625168E-1,-4.751699269E-1
1.201205900E0,8.615227342E-1,6.415499449E-1,-5.486731529E-1
1.206263712E0,9.845606685E-1,9.307690263E-1,-6.093931794E-1
1.211321525E0,1.101207018E0,1.213596582E0,-6.536015868E-1
1.216379389E0,1.200276494E0,1.473520875E0,-6.818310618E-1
1.221437202E0,1.278040767E0,1.682312489E0,-6.919510961E-1
1.226495066E0,1.329173446E0,1.829318881E0,-6.802331805E-1
1.231551837E0,1.355805039E0,1.921996832E0,-6.472100019E-1
1.236609650E0,1.350478649E0,1.973129392E0,-5.960773826E-1
1.241667514E0,1.313194513E0,1.984314680E0,-5.374878645E-1
1.246725327E0,1.244485021E0,1.953421950E0,-4.810288846E-1
1.251783191E0,1.152872324E0,1.887908340E0,-4.277657270E-1
1.256841004E0,1.046345949E0,1.794165134E0,-3.771657050E-1
1.261893452E0,9.414175153E-1,1.688171387E0,-3.318920135E-1
1.266951264E0,8.343585730E-1,1.581112385E0,-2.903467417E-1
1.272009129E0,7.320932150E-1,1.474053502E0,-2.557256520E-1
1.277066941E0,6.442090273E-1,1.392028213E0,-2.216372192E-1
1.282124754E0,5.712384582E-1,1.341428161E0,-1.859509051E-1
1.287182618E0,5.185078979E-1,1.313198686E0,-1.555908918E-1
1.292263347E0,4.812236428E-1,1.308937550E0,-1.342856139E-1
1.297321160E0,4.673751891E-1,1.331308126E0,-1.236329749E-1
1.302379025E0,4.668425620E-1,1.360602856E0,-1.151108742E-1
1.307436837E0,4.833541512E-1,1.402148128E0,-1.156435013E-1
1.312494650E0,5.051921010E-1,1.445823908E0,-1.241656169E-1
1.317552514E0,5.259647369E-1,1.492695570E0,-1.305572093E-1
1.322583452E0,5.424763560E-1,1.541697741E0,-1.332203597E-1
1.327641264E0,5.557921529E-1,1.581645131E0,-1.390793025E-1
1.332699129E0,5.659121275E-1,1.593363047E0,-1.491993070E-1
1.337756941E0,5.659121275E-1,1.594428182E0,-1.662435383E-1
1.342814754E0,5.627163649E-1,1.577383995E0,-1.859509051E-1
1.347872618E0,5.595205426E-1,1.525718689E0,-1.997993290E-1
1.352956681E0,5.531290174E-1,1.464998722E0,-2.131151259E-1
1.358014493E0,5.387479067E-1,1.406941891E0,-2.248330265E-1
1.363072358E0,5.275626779E-1,1.350482941E0,-2.365509272E-1
1.368130170E0,5.264974236E-1,1.288164973E0,-2.418772280E-1
1.373187983E0,5.227689743E-1,1.250880718E0,-2.354856580E-1
1.378245847E0,5.163773894E-1,1.248217583E0,-2.243003845E-1
1.383287827E0,5.089205503E-1,1.276447177E0,-2.077888101E-1
1.388345639E0,5.046594739E-1,1.311600804E0,-1.923424900E-1
1.393403504E0,5.041268468E-1,1.330775499E0,-1.779614240E-1
1.398461316E0,5.041268468E-1,1.334503889E0,-1.566561610E-1
1.403519181E0,4.998657107E-1,1.328644991E0,-1.300245672E-1
1.408576993E0,4.812236428E-1,1.315861821E0,-1.135129780E-1
1.413658295E0,4.572551847E-1,1.287099719E0,-9.646876156E-2
1.418716108E0,4.300909638E-1,1.251945972E0,-7.942454517E-2
1.423773972E0,4.002636075E-1,1.215727091E0,-6.557612121E-2
1.428831785E0,3.800235987E-1,1.170985937E0,-5.172769725E-2
1.433889597E0,3.720341325E-1,1.140093327E0,-3.415085003E-2
1.438947462E0,3.683056831E-1,1.140093327E0,-1.870452985E-2
1.443989806E0,3.746972680E-1,1.163529158E0,-1.127681346E-3
1.449047618E0,3.906762302E-1,1.209335446E0,1.059021708E-2
1.454105483E0,4.109162390E-1,1.278577566E0,9.524953552E-3
1.459163295E0,4.236994088E-1,1.366461873E0,1.272074319E-2
1.464221160E0,4.466025829E-1,1.441030264E0,1.857969351E-2
1.469278972E0,4.785604477E-1,1.464466095E0,2.976495959E-2
1.474310795E0,5.019962788E-1,1.468727112E0,4.521128163E-2
1.479368608E0,5.174426436E-1,1.462335587E0,6.172286719E-2
1.484426472E0,5.227689743E-1,1.451150298E0,8.356077224E-2
1.489484285E0,5.158447623E-1,1.432508111E0,9.740920365E-2
1.494542150E0,5.067899823E-1,1.395756602E0,1.064639390E-1
1.499600014E0,4.956046641E-1,1.348884940E0,1.117902622E-1
1.504693243E0,4.801583588E-1,1.303078771E0,1.155186743E-1
1.509751056E0,4.652446508E-1,1.261533380E0,1.197797284E-1
1.514808920E0,4.508636296E-1,1.221053362E0,1.197797284E-1
1.519866733E0,4.380804300E-1,1.191758633E0,1.149860471E-1
1.524924545E0,4.258299172E-1,1.178442836E0,1.075292006E-1
1.529982410E0,4.167751670E-1,1.176844954E0,9.794183075E-2
1.535042254E0,4.050572813E-1,1.193889141E0,8.196288347E-2
1.540100066E0,3.890783489E-1,1.237564921E0,5.746181309E-2
1.545157931E0,3.816214800E-1,1.275381804E0,3.189548850E-2
1.550215743E0,3.810888529E-1,1.282305956E0,8.992321789E-3
1.555273556E0,3.816214800E-1,1.283371329E0,4.198636394E-3
1.560331420E0,3.693709373E-1,1.307339668E0,-9.117158130E-3
1.565387254E0,3.470004201E-1,1.339830279E0,-2.988979779E-2
1.570445066E0,3.262277842E-1,1.372320771E0,-4.586874694E-2
1.575502931E0,3.022593260E-1,1.409072399E0,-5.598875135E-2
1.580560743E0,2.926719785E-1,1.440497637E0,-5.652138218E-2
1.585618556E0,2.900088131E-1,1.461802959E0,-4.853190854E-2
1.590676420E0,2.889435589E-1,1.491630316E0,-3.894453496E-2
1.595722150E0,2.766930163E-1,1.534773469E0,-3.042242862E-2
1.600779962E0,2.585835457E-1,1.615200877E0,-1.763926633E-2
1.605837775E0,2.292888165E-1,1.718531489E0,2.068109345E-3
1.610895639E0,1.957330108E-1,1.790436745E0,3.029759228E-2
1.615953452E0,1.712319702E-1,1.828253508E0,6.704918295E-2
1.621011316E0,1.456656307E-1,1.846363068E0,1.038007811E-1
1.626045691E0,1.227624565E-1,1.846363068E0,1.421502531E-1
1.631103556E0,1.025224552E-1,1.827188373E0,1.746407896E-1
1.636161420E0,7.748875767E-2,1.793632507E0,2.060660720E-1
1.641219181E0,5.245507509E-2,1.769131422E0,2.177839577E-1
1.646277045E0,2.529085428E-2,1.746760964E0,2.204471231E-1
1.651334858E0,7.714006118E-3,1.721727252E0,2.263060808E-1
1.656415587E0,-2.938629361E-3,1.711607218E0,2.364260852E-1
1.661473400E0,-8.264946751E-3,1.719596624E0,2.444155514E-1
1.666531264E0,-1.039547380E-2,1.738238692E0,2.470787168E-1
1.671589077E0,-1.572179049E-2,1.767533541E0,2.518723905E-1
1.676646889E0,-2.850495279E-2,1.799491405E0,2.598618865E-1
1.681704754E0,-5.034285411E-2,1.827188373E0,2.662534714E-1
1.686762097E0,-7.271339744E-2,1.835177779E0,2.673186958E-1
1.691819910E0,-9.881234914E-2,1.823459983E0,2.667860985E-1
1.696877775E0,-1.291723549E-1,1.799491405E0,2.614597678E-1
1.701935587E0,-1.632607877E-1,1.762207270E0,2.534703016E-1
1.706993452E0,-1.978818476E-1,1.722792506E0,2.417524010E-1
1.712051264E0,-2.319702804E-1,1.682312489E0,2.279039770E-1
1.717120066E0,-2.671239972E-1,1.642365098E0,2.023376524E-1
1.722177879E0,-3.166587651E-1,1.600819826E0,1.730429083E-1
1.727235743E0,-3.741829693E-1,1.544360876E0,1.357586831E-1
1.732293556E0,-4.386314154E-1,1.466596603E0,9.740920365E-2
1.737351368E0,-4.918946028E-1,1.372320771E0,5.479865521E-2
1.742409233E0,-5.259829164E-1,1.280175567E0,1.644916646E-2
1.747450587E0,-5.398313999E-1,1.216259599E0,-1.018242165E-2
1.752508400E0,-5.329071879E-1,1.206672311E0,-2.882453240E-2
1.757566264E0,-5.302440524E-1,1.260468125E0,-3.787926957E-2
1.762624077E0,-5.488861203E-1,1.355276585E0,-3.308558464E-2
1.767681889E0,-6.122693419E-1,1.464466095E0,-2.882453240E-2
1.772739754E0,-7.310461998E-1,1.532642961E0,-2.882453240E-2
1.777814233E0,-8.919009566E-1,1.531577706E0,-3.258208279E-3
1.782872045E0,-1.046896815E0,1.504946113E0,3.562391177E-2
1.787929910E0,-1.169934750E0,1.482575536E0,7.237550616E-2
1.792987722E0,-1.241307497E0,1.485238791E0,1.006049886E-1
1.798045535E0,-1.258884192E0,1.510272384E0,1.245734170E-1
1.803103400E0,-1.238111615E0,1.546491265E0,1.522702575E-1
1.808161316E0,-1.208816886E0,1.585373521E0,1.986092180E-1
1.813219129E0,-1.181119919E0,1.601352453E0,2.609271407E-1
1.818276993E0,-1.150227427E0,1.555546165E0,3.227124214E-1
1.823334806E0,-1.112410545E0,1.469259739E0,3.685187399E-1
1.828392618E0,-1.072995782E0,1.386169195E0,4.052703381E-1
1.833450483E0,-1.035711527E0,1.305209160E0,4.377608895E-1
1.838477618E0,-1.003753662E0,1.230640769E0,4.574682415E-1
1.843535483E0,-9.776546955E-1,1.181638598E0,4.713166952E-1
1.848593295E0,-9.685999751E-1,1.160333395E0,4.803714156E-1
1.853651160E0,-9.712631106E-1,1.160333395E0,4.920893013E-1
1.858708972E0,-9.749915600E-1,1.168322802E0,4.936872125E-1
1.863766785E0,-9.792525768E-1,1.174714446E0,4.856977463E-1
1.868842462E0,-9.739263058E-1,1.164061785E0,4.782408774E-1
1.873900275E0,-9.494252205E-1,1.129440665E0,4.654577374E-1
1.878958139E0,-9.121409655E-1,1.091091156E0,4.462830126E-1
1.884015952E0,-8.668673038E-1,1.060731173E0,4.228471816E-1
1.889073816E0,-8.205283284E-1,1.050078630E0,3.988787532E-1
1.894131629E0,-7.752546072E-1,1.077242732E0,3.759756088E-1
1.899201056E0,-7.289156914E-1,1.128908038E0,3.669208586E-1
1.904258868E0,-6.815114617E-1,1.177377582E0,3.674535155E-1
1.909316681E0,-6.394335032E-1,1.205607057E0,3.765082359E-1
1.914374545E0,-6.010839939E-1,1.225314379E0,3.866282403E-1
1.919432358E0,-5.707240105E-1,1.240228176E0,4.026072025E-1
1.924490222E0,-5.462229848E-1,1.245021820E0,4.239124656E-1
1.929519650E0,-5.265156031E-1,1.240228176E0,4.441524446E-1
1.934577462E0,-5.158629417E-1,1.235967040E0,4.665229917E-1
1.939635327E0,-5.004166365E-1,1.239162803E0,4.787735045E-1
1.944693139E0,-4.881661832E-1,1.242891192E0,4.936872125E-1
1.949750952E0,-4.801766872E-1,1.242358565E0,5.070030093E-1
1.954808816E0,-4.684588015E-1,1.243423939E0,5.203188062E-1
1.959877983E0,-4.588714242E-1,1.248750210E0,5.346998572E-1
1.964935795E0,-4.482187927E-1,1.251413465E0,5.490809679E-1
1.969993660E0,-4.349029958E-1,1.250880718E0,5.538746119E-1
1.975051525E0,-4.237177372E-1,1.250348091E0,5.586683154E-1
1.980109337E0,-4.146629870E-1,1.256206989E0,5.682556629E-1
1.985167150E0,-4.024124444E-1,1.253011346E0,5.810388327E-1
1.990196889E0,-3.832376897E-1,1.225847006E0,5.884956717E-1
1.995254754E0,-3.667261302E-1,1.190160751E0,5.970177650E-1
2.000312618E0,-3.496819139E-1,1.158735514E0,6.082029939E-1
2.005370431E0,-3.353008628E-1,1.139028072E0,6.252472401E-1
2.010428243E0,-3.283766508E-1,1.126777530E0,6.486830711E-1
2.015486108E0,-3.267787397E-1,1.124647021E0,6.742494106E-1
2.020581420E0,-3.246482313E-1,1.129440665E0,6.998156905E-1
2.025639285E0,-3.241156042E-1,1.134234309E0,7.227188945E-1
2.030697097E0,-3.251808584E-1,1.139560699E0,7.498830557E-1
2.035754962E0,-3.155934811E-1,1.141691208E0,7.717210054E-1
2.040812775E0,-2.974840105E-1,1.145952225E0,7.876999378E-1
2.045870587E0,-2.772440016E-1,1.153409123E0,8.090052009E-1
2.050887931E0,-2.463513464E-1,1.161931276E0,8.223209977E-1
2.055945743E0,-2.133281678E-1,1.176844954E0,8.303105235E-1
2.061003608E0,-1.717828959E-1,1.202411294E0,8.356367946E-1
2.066061420E0,-1.238460466E-1,1.233836532E0,8.382999301E-1
2.071119233E0,-7.910497487E-2,1.266859770E0,8.356367946E-1
2.076177097E0,-3.596179560E-2,1.299350142E0,8.292452097E-1
2.081272931E0,1.037716400E-2,1.328644991E0,8.175272942E-1
2.086330743E0,5.618349835E-2,1.348884940E0,8.095378280E-1
2.091388608E0,1.014571935E-1,1.363798738E0,8.015483618E-1
2.096446420E0,1.483287960E-1,1.367527127E0,7.946241498E-1
2.101504233E0,1.920045912E-1,1.363266110E0,7.839714885E-1
2.106562097E0,2.388761938E-1,1.357407093E0,7.733188868E-1
2.111581004E0,2.820193470E-1,1.352080822E0,7.679925561E-1
2.116638816E0,3.134446144E-1,1.358472347E0,7.727862597E-1
2.121696681E0,3.379456699E-1,1.378179789E0,7.717210054E-1
2.126754493E0,3.555225134E-1,1.399484992E0,7.690578103E-1
2.131812358E0,3.651098907E-1,1.420257688E0,7.594704628E-1
2.136870170E0,3.794909716E-1,1.433040738E0,7.445567846E-1
2.141994337E0,3.960025311E-1,1.437834501E0,7.216535807E-1
2.147052202E0,4.252972901E-1,1.431975603E0,6.960873008E-1
2.152110014E0,4.599183798E-1,1.420257688E0,6.769125462E-1
2.157167879E0,4.977352023E-1,1.406941891E0,6.566725373E-1
2.162225743E0,5.344868302E-1,1.402148128E0,6.406935453E-1
2.167283556E0,5.611184239E-1,1.405876517E0,6.289756894E-1
2.172326837E0,5.802931786E-1,1.414931417E0,6.257799268E-1
2.177384702E0,5.856195092E-1,1.430377722E0,6.268451810E-1
2.182442566E0,5.802931786E-1,1.451150298E0,6.289756894E-1
2.187500379E0,5.653795004E-1,1.476183891E0,6.353672743E-1
2.192558243E0,5.462047458E-1,1.500152469E0,6.492156982E-1
2.197616108E0,5.264974236E-1,1.524653435E0,6.657272577E-1
2.202658295E0,5.073226094E-1,1.539567113E0,6.864998937E-1
2.207716160E0,4.844194055E-1,1.546491265E0,7.131314874E-1
2.212774025E0,4.460699260E-1,1.546491265E0,7.434915304E-1
2.217831837E0,3.933393955E-1,1.534240842E0,7.754493952E-1
2.222889702E0,3.347498775E-1,1.508141875E0,8.100705147E-1
2.227947514E0,2.628445923E-1,1.474586010E0,8.436263204E-1
2.233004493E0,1.856130064E-1,1.438899755E0,8.771820664E-1
2.238062306E0,1.121098250E-1,1.398952365E0,9.086073637E-1
2.243120170E0,4.872665182E-2,1.376049161E0,9.336410761E-1
2.248178035E0,-6.134419702E-3,1.368059635E0,9.501525760E-1
2.253235900E0,-5.087548494E-2,1.373918653E0,9.602726698E-1
2.258293712E0,-9.508392960E-2,1.394691229E0,9.629358053E-1
2.263364077E0,-1.408902556E-1,1.420257688E0,9.597399831E-1
2.268421889E0,-1.760439426E-1,1.433040738E0,9.624031782E-1
2.273479754E0,-2.058713287E-1,1.435171366E0,9.682620764E-1
2.278537618E0,-2.218502760E-1,1.429845095E0,9.831758142E-1
2.283595431E0,-2.266439646E-1,1.426116586E0,1.004481196E0
2.288653295E0,-2.197197527E-1,1.425583959E0,1.030047536E0
2.293710483E0,-2.074692249E-1,1.429312348E0,1.056679130E0
2.298768295E0,-1.813702732E-1,1.427181840E0,1.081712723E0
2.303826160E0,-1.467492133E-1,1.408539772E0,1.110474825E0
2.308884025E0,-1.062691957E-1,1.370190263E0,1.145628572E0
2.313941837E0,-6.738708168E-2,1.322253346E0,1.189836979E0
2.318999702E0,-1.518915873E-2,1.270055532E0,1.230849624E0
2.324057462E0,5.618349835E-2,1.224249125E0,1.267068624E0
2.329115275E0,1.499266773E-1,1.193356514E0,1.293700218E0
2.334173139E0,2.607140839E-1,1.181105971E0,1.312342286E0
2.339231004E0,3.805562258E-1,1.188562870E0,1.324592829E0
2.344288816E0,5.009310246E-1,1.215727091E0,1.318201184E0
2.349346681E0,6.191753149E-1,1.268457651E0,1.301156998E0
2.354376420E0,7.336911559E-1,1.346221805E0,1.276655912E0
2.359434233E0,8.428806663E-1,1.448487163E0,1.245763302E0
2.364492097E0,9.488743544E-1,1.564600825E0,1.204750657E0
2.369549962E0,1.045813441E0,1.676453471E0,1.158411741E0
2.374607775E0,1.137958646E0,1.782979846E0,1.106746435E0
2.379665691E0,1.225842953E0,1.875125051E0,1.048689604E0
2.384736733E0,1.309998631E0,1.945965171E0,9.879695177E-1
2.389794597E0,1.380306005E0,1.992304087E0,9.251189232E-1
2.394852410E0,1.443689227E0,2.027457952E0,8.580073118E-1
2.399910275E0,1.495354533E0,2.050360918E0,7.930262685E-1
2.404968139E0,1.535834551E0,2.065274715E0,7.291104198E-1
2.410025952E0,1.566194654E0,2.074862242E0,6.769125462E-1
2.415086316E0,1.588032484E0,2.081253767E0,6.332367063E-1
2.420144129E0,1.604544044E0,2.075394630E0,5.943546295E-1
2.425201993E0,1.613066196E0,2.057817936E0,5.613314509E-1
2.430259858E0,1.623718739E0,2.034382105E0,5.331019163E-1
2.435317722E0,1.638099909E0,2.006685257E0,4.990135431E-1
2.440375587E0,1.651948214E0,1.975792527E0,4.622619450E-1
2.445406837E0,1.670590401E0,1.946497798E0,4.271082580E-1
2.450464702E0,1.700950384E0,1.915605187E0,3.940850794E-1
2.455522566E0,1.736636758E0,1.886843085E0,3.562682271E-1
2.460580431E0,1.776584148E0,1.861809373E0,3.211145103E-1
2.465638243E0,1.820259929E0,1.845297813E0,2.918197811E-1
2.470696056E0,1.853283167E0,1.844765067E0,2.635902762E-1
2.475783660E0,1.870327353E0,1.861276746E0,2.316323966E-1
2.480841472E0,1.877784133E0,1.891104102E0,1.959460527E-1
2.485899337E0,1.869794726E0,1.942769408E0,1.581292152E-1
2.490957202E0,1.858076811E0,2.009881020E0,1.203123629E-1
2.496015066E0,1.844228268E0,2.079123259E0,8.143024147E-2
2.501072879E0,1.833043098E0,2.144636869E0,3.828706965E-2
2.506137670E0,1.826651573E0,2.202693701E0,-8.584526367E-3
2.511195483E0,1.821857810E0,2.247434616E0,-5.119506642E-2
2.516253347E0,1.819727302E0,2.278859854E0,-9.220770746E-2
2.521311212E0,1.815466166E0,2.295371771E0,-1.284266710E-1
2.526369025E0,1.810672522E0,2.293241024E0,-1.619824618E-1
2.531426889E0,1.803215742E0,2.277261972E0,-1.944730133E-1
2.536484129E0,1.790432572E0,2.251163244E0,-2.248330265E-1
2.541541941E0,1.780312538E0,2.224531651E0,-2.583888173E-1
2.546599806E0,1.758474588E0,2.195769310E0,-2.898141146E-1
2.551657670E0,1.731310487E0,2.167007446E0,-3.196414709E-1
2.556715483E0,1.699885130E0,2.143038988E0,-3.436098993E-1
2.561773347E0,1.661535621E0,2.118537903E0,-3.627846539E-1
2.566832566E0,1.611468315E0,2.096167326E0,-3.723720312E-1
2.571890379E0,1.548085093E0,2.073264360E0,-3.739699125E-1
2.576948243E0,1.468190312E0,2.039175749E0,-3.681109548E-1
2.582006108E0,1.378175616E0,1.999760866E0,-3.585235775E-1
2.587063920E0,1.276975513E0,1.962476730E0,-3.377509713E-1
2.592121785E0,1.173112392E0,1.915072441E0,-3.095214665E-1
2.597170327E0,1.063390136E0,1.853287220E0,-2.749004066E-1
2.602228191E0,9.616575241E-1,1.772327304E0,-2.317572385E-1
2.607286004E0,8.849585056E-1,1.671127200E0,-1.859509051E-1
2.612343868E0,8.237059116E-1,1.552882910E0,-1.316224635E-1
2.617401681E0,7.608553767E-1,1.410670280E0,-6.397821754E-2
2.622459545E0,6.852216721E-1,1.255674362E0,2.600741107E-3
2.627527722E0,5.808258057E-1,1.102809072E0,6.971234828E-2
2.632585535E0,4.471351802E-1,9.685858488E-1,1.325628757E-1
2.637643452E0,2.942698598E-1,8.588637114E-1,1.863586903E-1
2.642701264E0,1.248929799E-1,7.715121508E-1,2.326976657E-1
2.647759129E0,-4.182074592E-2,6.990742087E-1,2.673186958E-1
2.652816941E0,-1.952186972E-1,6.303646564E-1,2.875587344E-1
2.657857931E0,-3.235829473E-1,5.563288927E-1,2.896892428E-1
2.662915795E0,-4.253156185E-1,4.790972769E-1,2.747755647E-1
2.667973608E0,-4.998840392E-1,3.912130296E-1,2.481439859E-1
2.673031472E0,-5.531471968E-1,2.948066890E-1,2.028702796E-1
2.678089337E0,-5.925619006E-1,1.856171638E-1,1.554660499E-1
2.683147150E0,-6.202587485E-1,5.618765205E-2,1.011376157E-1
2.688208035E0,-6.495535374E-1,-8.815555274E-2,3.455865011E-2
2.693265847E0,-6.788483262E-1,-2.372924387E-1,-3.521611169E-2
2.698323712E0,-6.980230212E-1,-3.752440810E-1,-1.081866622E-1
2.703381577E0,-6.916314363E-1,-4.913577735E-1,-1.934077442E-1
2.708439441E0,-6.325092912E-1,-5.579367280E-1,-3.020646274E-1
2.713497254E0,-5.025472045E-1,-5.632630587E-1,-4.325594008E-1
2.718547670E0,-2.953534722E-1,-4.934883118E-1,-5.800983906E-1
2.723605483E0,-2.317863517E-2,-3.438187838E-1,-7.446816564E-1
2.728663347E0,2.878783047E-1,-9.507976472E-2,-9.060690403E-1
2.733721212E0,5.973374248E-1,2.516635358E-1,-1.029106975E0
2.738779077E0,8.508701324E-1,6.372889280E-1,-1.080239654E0
2.743836889E0,1.004268050E0,9.968153834E-1,-1.062130094E0
2.748912722E0,1.053802729E0,1.286034346E0,-1.004605770E0
2.753970535E0,1.019714355E0,1.492162943E0,-9.374943376E-1
2.759028400E0,9.430153966E-1,1.605080962E0,-8.719805479E-1
2.764086264E0,8.450111747E-1,1.622657657E0,-8.038037419E-1
2.769144077E0,7.619206309E-1,1.527316689E0,-7.303006053E-1
2.774201941E0,6.948089600E-1,1.329710245E0,-6.493405104E-1
2.779259233E0,6.537963748E-1,1.104939699E0,-5.545321107E-1
2.784317045E0,6.447415948E-1,9.004089832E-1,-4.490709901E-1
2.789374910E0,6.617858410E-1,7.464784384E-1,-3.436098993E-1
2.794432775E0,6.974722147E-1,6.324952245E-1,-2.541277707E-1
2.799490587E0,7.480721474E-1,5.621878505E-1,-1.806245893E-1
2.804548452E0,7.938784957E-1,5.499373078E-1,-1.172413975E-1
2.809618660E0,8.269016743E-1,5.739057660E-1,-6.397821754E-2
2.814676525E0,8.444785476E-1,6.005373597E-1,-1.976979338E-2
2.819734389E0,8.471416831E-1,6.261036396E-1,1.272074319E-2
2.824792254E0,8.492722511E-1,6.639205217E-1,2.656917088E-2
2.829850066E0,8.567290902E-1,7.241079211E-1,2.550390735E-2
2.834907931E0,8.609901667E-1,8.098616004E-1,2.068109345E-3
2.839967827E0,8.684470057E-1,9.270405769E-1,-4.214032367E-2
2.845025691E0,8.673816919E-1,1.072449088E0,-1.012624428E-1
2.850083504E0,8.631206155E-1,1.256206989E0,-1.832877398E-1
2.855141368E0,8.476743698E-1,1.453280807E0,-2.733024955E-1
2.860199233E0,8.199775219E-1,1.633842945E0,-3.627846539E-1
2.865257097E0,7.906827331E-1,1.785643101E0,-4.496036172E-1
2.870293191E0,7.672469020E-1,1.905485153E0,-5.273678303E-1
2.875351004E0,7.635185122E-1,1.990706325E0,-5.923489332E-1
2.880408868E0,7.773669362E-1,2.066872597E0,-6.525362730E-1
2.885466733E0,8.050637841E-1,2.138777971E0,-7.042015791E-1
2.890524545E0,8.434132934E-1,2.205889463E0,-7.425510883E-1
2.895582410E0,8.844259381E-1,2.268740177E0,-7.675847411E-1
2.900651837E0,9.249058962E-1,2.320937872E0,-7.782374024E-1
2.905709702E0,9.669838548E-1,2.357156754E0,-7.766395211E-1
2.910767514E0,1.012257576E0,2.367809534E0,-7.665195465E-1
2.915825379E0,1.054335475E0,2.347037077E0,-7.452142239E-1
2.920883191E0,1.084695458E0,2.306024313E0,-7.143215537E-1
2.925941056E0,1.104402900E0,2.250097990E0,-6.770374179E-1
2.930994597E0,1.108131289E0,2.189910412E0,-6.333615780E-1
2.936052462E0,1.094282866E0,2.130788326E0,-5.816962719E-1
2.941110327E0,1.064455509E0,2.072731495E0,-5.263025761E-1
2.946168139E0,1.026638627E0,2.024261951E0,-4.741047025E-1
2.951226004E0,9.888217449E-1,1.983249426E0,-4.261678457E-1
2.956283868E0,9.456785321E-1,1.946497798E0,-3.840899169E-1
2.961327670E0,9.083943963E-1,1.916137815E0,-3.462730646E-1
2.966385483E0,8.737732768E-1,1.899626255E0,-3.185762167E-1
2.971443347E0,8.466090560E-1,1.898561001E0,-2.967382967E-1
2.976501212E0,8.327606320E-1,1.914539933E0,-2.871509194E-1
2.981559025E0,8.242385387E-1,1.943302035E0,-2.807593644E-1
2.986616889E0,8.221079707E-1,1.988575816E0,-2.823572457E-1
2.991659025E0,8.242385387E-1,2.047165155E0,-2.850204110E-1
2.996716889E0,8.338258862E-1,2.109483004E0,-2.972709537E-1
3.001774702E0,8.524680138E-1,2.164876699E0,-3.073909581E-1
3.006832566E0,8.743059635E-1,2.205889463E0,-3.159130514E-1
3.011890431E0,8.924153447E-1,2.232521057E0,-3.276309371E-1
3.016948243E0,9.046659470E-1,2.242108583E0,-3.361530602E-1
3.022035483E0,9.153185487E-1,2.244771481E0,-3.414793909E-1
3.027093295E0,9.254385829E-1,2.235184193E0,-3.473383486E-1
3.032151160E0,9.344933033E-1,2.197367191E0,-3.521319926E-1
3.037208972E0,9.446133375E-1,2.133984327E0,-3.553278148E-1
3.042266837E0,9.616575241E-1,2.042904139E0,-3.500014842E-1
3.047324702E0,9.707122445E-1,1.942236781E0,-3.430772424E-1
3.052381889E0,9.685817361E-1,1.861276746E0,-3.292288482E-1
3.057439702E0,9.616575241E-1,1.808013558E0,-3.089888394E-1
3.062497566E0,9.499396086E-1,1.761674523E0,-2.860856652E-1
3.067555431E0,9.366238117E-1,1.720661998E0,-2.605193257E-1
3.072613243E0,9.259712100E-1,1.690302014E0,-2.344203889E-1
3.077671108E0,9.094596505E-1,1.676986217E0,-2.099193335E-1
3.082718920E0,8.940132856E-1,1.679116726E0,-1.854182780E-1
3.087776785E0,8.790995479E-1,1.688704133E0,-1.641130149E-1
3.092834597E0,8.663164377E-1,1.702552438E0,-1.449382603E-1
3.097892462E0,8.572616577E-1,1.713737726E0,-1.262961477E-1
3.102950327E0,8.503375053E-1,1.713737726E0,-1.129803509E-1
3.108008139E0,8.439458609E-1,1.716400862E0,-1.044582352E-1
3.113074493E0,8.338258862E-1,1.727586150E0,-9.806665033E-2
3.118132358E0,8.279669285E-1,1.738771439E0,-9.114244580E-2
3.123190222E0,8.199775219E-1,1.739304066E0,-8.954454958E-2
3.128248035E0,8.114553690E-1,1.736108303E0,-9.167507291E-2
3.133305900E0,8.002700806E-1,1.730781913E0,-9.114244580E-2
3.138363712E0,7.901501060E-1,1.717466116E0,-9.007718414E-2
3.143389650E0,7.752364278E-1,1.694030404E0,-8.954454958E-2
3.148447202E0,7.549964190E-1,1.665800929E0,-9.806665033E-2
3.153504858E0,7.304953337E-1,1.634908199E0,-1.071213931E-1
3.158562462E0,7.065268755E-1,1.607743979E0,-1.161761358E-1
3.163620066E0,6.857542992E-1,1.583242893E0,-1.252308786E-1
3.168677670E0,6.719058752E-1,1.560339808E0,-1.310898364E-1
3.173755118E0,6.617858410E-1,1.528381944E0,-1.353508979E-1
3.178812722E0,6.580573916E-1,1.484173417E0,-1.342856139E-1
3.183870275E0,6.532637477E-1,1.436236501E0,-1.412098408E-1
3.188927931E0,6.479374170E-1,1.394691229E0,-1.545256376E-1
3.193985535E0,6.431437135E-1,1.358472347E0,-1.657108963E-1
3.199043139E0,6.383500695E-1,1.320122957E0,-1.790266931E-1
3.204104754E0,6.298279762E-1,1.275381804E0,-1.971361637E-1
3.209162410E0,6.213058233E-1,1.224249125E0,-2.147130072E-1
3.214219962E0,6.127837300E-1,1.166192293E0,-2.306919694E-1
3.219277618E0,6.042616367E-1,1.104939699E0,-2.488014549E-1
3.224335222E0,5.914784670E-1,1.045817494E0,-2.626498938E-1
3.229392827E0,5.813584328E-1,9.856300354E-1,-2.743677795E-1
3.234427514E0,5.643142462E-1,9.270405769E-1,-2.818246186E-1
3.239485066E0,5.467373729E-1,8.700489998E-1,-2.823572457E-1
3.244542722E0,5.201057792E-1,8.199816346E-1,-2.924772501E-1
3.249600327E0,4.961372912E-1,7.736425996E-1,-3.036625087E-1
3.254657931E0,4.727015197E-1,7.464784384E-1,-3.148477972E-1
3.259715535E0,4.529941380E-1,7.422173619E-1,-3.239025176E-1
3.264809337E0,4.455372989E-1,7.438152432E-1,-3.356204331E-1
3.269866941E0,4.471351802E-1,7.544679046E-1,-3.446751535E-1
3.274924545E0,4.460699260E-1,7.672510743E-1,-3.505341113E-1
3.279982150E0,4.513962269E-1,7.880236506E-1,-3.537299037E-1
3.285039806E0,4.497983456E-1,8.061331511E-1,-3.452078104E-1
3.290097358E0,4.455372989E-1,8.237100244E-1,-3.361530602E-1
3.295156525E0,4.364825487E-1,8.354278803E-1,-3.228372633E-1
3.300214129E0,4.242320359E-1,8.572657704E-1,-3.073909581E-1
3.305271733E0,4.119814932E-1,8.828321099E-1,-2.839551568E-1
3.310329337E0,4.029267430E-1,8.977458477E-1,-2.589214742E-1
3.315386993E0,3.922741115E-1,9.099963903E-1,-2.285614461E-1
3.320444545E0,3.773604333E-1,9.302363992E-1,-1.987340748E-1
3.325504077E0,3.656425178E-1,9.472805858E-1,-1.662435383E-1
3.330561681E0,3.629793823E-1,9.542047977E-1,-1.215024516E-1
3.335619285E0,3.619141281E-1,9.531394839E-1,-7.995717973E-2
3.340676889E0,3.512614667E-1,9.446173906E-1,-4.693401232E-2
3.345734545E0,3.427393734E-1,9.323669076E-1,-1.497610845E-2
3.350792097E0,3.374130428E-1,9.121268988E-1,2.124285139E-2
3.355821577E0,3.320867419E-1,8.897563219E-1,6.385339051E-2
3.360879129E0,3.299562037E-1,8.679184318E-1,1.038007811E-1
3.365936785E0,3.326193392E-1,8.460805416E-1,1.368239373E-1
3.370994389E0,3.400762081E-1,8.071984053E-1,1.746407896E-1
3.376051993E0,3.485983312E-1,7.667184472E-1,2.119250149E-1
3.381109545E0,3.624467552E-1,7.294341922E-1,2.417524010E-1
3.386187150E0,3.800235987E-1,7.022700310E-1,2.662534714E-1
3.391244806E0,4.018614888E-1,6.846931577E-1,2.864934504E-1
3.396302410E0,4.263625443E-1,6.633878350E-1,3.030050397E-1
3.401360014E0,4.583204687E-1,6.442131400E-1,3.184513748E-1
3.406417618E0,4.934741557E-1,6.378214955E-1,3.280387521E-1
3.411475222E0,5.275626779E-1,6.394194365E-1,3.354955912E-1
3.416531108E0,5.659121275E-1,6.399520636E-1,3.408219218E-1
3.421588712E0,5.984026790E-1,6.399520636E-1,3.466808498E-1
3.426646316E0,6.250342727E-1,6.271689534E-1,3.498766422E-1
3.431703972E0,6.415458918E-1,5.978741050E-1,3.520071507E-1
3.436761577E0,6.506005526E-1,5.536656976E-1,3.557355702E-1
3.441819181E0,6.532637477E-1,4.988046288E-1,3.578661382E-1
3.446879702E0,6.484700441E-1,4.316930473E-1,3.552029431E-1
3.451937306E0,6.399479508E-1,3.699077666E-1,3.530724347E-1
3.456994910E0,6.314257979E-1,3.129161894E-1,3.456155956E-1
3.462052514E0,6.186426878E-1,2.692403793E-1,3.301692605E-1
3.467110118E0,6.047942638E-1,2.612508833E-1,3.248429298E-1
3.472167722E0,5.872173905E-1,2.793603539E-1,3.211145103E-1
3.477238608E0,5.739015937E-1,3.022635281E-1,3.168534636E-1
3.482296212E0,5.621836782E-1,3.288951218E-1,3.141903281E-1
3.487353816E0,5.563247204E-1,3.656467199E-1,3.099292815E-1
3.492411472E0,5.419436693E-1,4.034635723E-1,3.072660863E-1
3.497469077E0,5.243668556E-1,4.354214668E-1,3.072660863E-1
3.502526681E0,4.918762445E-1,4.583246410E-1,3.104619086E-1
3.507586004E0,4.434067607E-1,4.673793912E-1,3.152555823E-1
3.512643608E0,3.816214800E-1,4.615204334E-1,3.205818832E-1
3.517701212E0,3.081183136E-1,4.396825433E-1,3.243103027E-1
3.522758816E0,2.324846089E-1,4.130509496E-1,3.205818832E-1
3.527816472E0,1.461982578E-1,3.853540719E-1,3.088639975E-1
3.532874077E0,4.872665182E-2,3.571246266E-1,2.864934504E-1
3.537930483E0,-5.460390821E-2,3.241014183E-1,2.502745092E-1
3.542988087E0,-1.616628915E-1,2.836214006E-1,2.065987140E-1
3.548045691E0,-2.772440016E-1,2.394129783E-1,1.522702575E-1
3.553103347E0,-3.992166817E-1,2.053245455E-1,9.155024588E-2
3.558160952E0,-5.238524675E-1,1.781603396E-1,3.029759228E-2
3.563218556E0,-6.602061391E-1,1.435392797E-1,-2.935716324E-2
3.568274025E0,-8.034840822E-1,1.073203012E-1,-8.528349549E-2
3.573331681E0,-9.435662627E-1,7.642766088E-2,-1.316224635E-1
3.578389285E0,-1.086844206E0,5.831818283E-2,-1.529277414E-1
3.583446889E0,-1.243970513E0,3.381711990E-2,-1.747656465E-1
3.588504493E0,-1.416543365E0,4.522376694E-3,-2.019298524E-1
3.593562097E0,-1.597638011E0,-1.252183970E-2,-2.083214372E-1
3.598612775E0,-1.782993913E0,-2.051131614E-2,-1.992667019E-1
3.603670327E0,-1.971545458E0,-4.021869600E-2,-1.918098480E-1
3.608727931E0,-2.159032106E0,-6.578501314E-2,-1.790266931E-1
3.613785587E0,-2.342789888E0,-9.614502639E-2,-1.742330045E-1
3.618843191E0,-2.534004927E0,-1.233092546E-1,-1.854182780E-1
3.623900795E0,-2.714034319E0,-1.297008246E-1,-2.013972253E-1
3.628960118E0,-2.862638712E0,-1.137218773E-1,-2.179088145E-1
3.634017722E0,-2.978752375E0,-6.578501314E-2,-2.338877618E-1
3.639075275E0,-3.071963072E0,-9.858680889E-3,-2.546603978E-1
3.644132931E0,-3.151857853E0,9.848693386E-3,-2.658456564E-1
3.649190535E0,-3.220034599E0,-1.784815826E-2,-2.509319782E-1
3.654248139E0,-3.267438889E0,-9.348186851E-2,-2.141803950E-1
3.659306420E0,-3.291407108E0,-2.655219436E-1,-1.667761505E-1
3.664364077E0,-3.278091431E0,-5.776441097E-1,-1.289593130E-1
3.669421629E0,-3.245600939E0,-9.361053109E-1,-8.528349549E-2
3.674479285E0,-3.212577820E0,-1.186974764E0,-1.337821130E-2
3.679536837E0,-3.184880733E0,-1.281250596E0,8.302814513E-2
3.684594493E0,-3.145998716E0,-1.283381104E0,1.810323745E-1
3.689667931E0,-3.090605259E0,-1.266336918E0,2.619924247E-1
3.694725587E0,-3.016569376E0,-1.267402291E0,3.232450783E-1
3.699783139E0,-2.932945967E0,-1.270065308E0,3.599966466E-1
3.704840795E0,-2.853051186E0,-1.270065308E0,3.594639897E-1
3.709898400E0,-2.772091389E0,-1.311078072E0,3.211145103E-1
3.714956004E0,-2.700186014E0,-1.395233750E0,2.310997546E-1
3.720046004E0,-2.654912233E0,-1.476193905E0,1.059313044E-1
3.725103660E0,-2.652781725E0,-1.507619143E0,-4.267295450E-2
3.730161212E0,-2.686870337E0,-1.467671752E0,-2.003319561E-1
3.735218868E0,-2.738002777E0,-1.377657056E0,-3.462730646E-1
3.740276472E0,-2.775819778E0,-1.313208461E0,-4.773004651E-1
3.745334077E0,-2.797657728E0,-1.376059055E0,-5.960773826E-1
3.750354233E0,-2.802983761E0,-1.558219194E0,-6.967447400E-1
3.755411889E0,-2.801918745E0,-1.756358147E0,-7.563995123E-1
3.760469441E0,-2.807777643E0,-1.926800370E0,-7.601279020E-1
3.765527097E0,-2.810973406E0,-2.063153982E0,-7.047342658E-1
3.770584702E0,-2.808842897E0,-2.191518307E0,-6.136541963E-1
3.775642306E0,-2.798190117E0,-2.335328817E0,-5.124541521E-1
3.780705431E0,-2.779548168E0,-2.475410938E0,-4.282983541E-1
3.785763035E0,-2.751851320E0,-2.584600449E0,-3.835572898E-1
3.790820639E0,-2.719893456E0,-2.657038450E0,-3.846225441E-1
3.795878295E0,-2.693794489E0,-2.684735298E0,-4.128520489E-1
3.800935900E0,-2.654912233E0,-2.667690992E0,-4.554625750E-1
3.805993504E0,-2.585137606E0,-2.643722534E0,-5.151173472E-1
3.811067358E0,-2.484470129E0,-2.629341602E0,-5.886205435E-1
3.816124962E0,-2.365160704E0,-2.625080347E0,-6.695805788E-1
3.821182566E0,-2.227741718E0,-2.608568907E0,-7.526710629E-1
3.826240222E0,-2.080735207E0,-2.569154263E0,-8.373595476E-1
3.831297775E0,-1.941185474E0,-2.518554211E0,-9.145911932E-1
3.836355431E0,-1.802168727E0,-2.472215176E0,-9.886269569E-1
3.841391837E0,-1.671141148E0,-2.436528921E0,-1.056803823E0
3.846449441E0,-1.554494858E0,-2.406701565E0,-1.113262653E0
3.851507045E0,-1.461817026E0,-2.376341343E0,-1.159069061E0
3.856564702E0,-1.391509652E0,-2.343318224E0,-1.194222808E0
3.861622254E0,-1.337181091E0,-2.317219496E0,-1.211799502E0
3.866679910E0,-1.300429583E0,-2.301773071E0,-1.208603859E0
3.871708556E0,-1.278059006E0,-2.295914173E0,-1.192092299E0
3.876766160E0,-1.262612700E0,-2.304968834E0,-1.167058587E0
3.881823764E0,-1.249829531E0,-2.320415258E0,-1.138296366E0
3.886881368E0,-1.239176869E0,-2.340655088E0,-1.106338501E0
3.891938920E0,-1.231720090E0,-2.352373123E0,-1.069586873E0
3.896996577E0,-1.228524208E0,-2.364623785E0,-1.036563754E0
3.902083868E0,-1.224795818E0,-2.375808954E0,-1.009399533E0
3.907141472E0,-1.211480021E0,-2.380602598E0,-9.864964485E-1
3.912199025E0,-1.185381055E0,-2.382200241E0,-9.667890668E-1
3.917256681E0,-1.131585240E0,-2.381667852E0,-9.566690326E-1
3.922314285E0,-1.053820968E0,-2.385928869E0,-9.534732699E-1
3.927371889E0,-9.536862373E-1,-2.389124632E0,-9.513427615E-1
3.932406108E0,-8.482251763E-1,-2.392320395E0,-9.529405832E-1
3.937463660E0,-7.390356660E-1,-2.383265734E0,-9.603974223E-1
3.942521316E0,-6.394335032E-1,-2.348111868E0,-9.641259313E-1
3.947578920E0,-5.467556119E-1,-2.282598257E0,-9.577342868E-1
3.952636525E0,-4.620672166E-1,-2.192050934E0,-9.380269647E-1
3.957694129E0,-3.795093000E-1,-2.080198050E0,-9.097974896E-1
3.962776993E0,-2.980166376E-1,-1.945974946E0,-8.714479804E-1
3.967834597E0,-2.175892144E-1,-1.782989740E0,-8.261742592E-1
3.972892150E0,-1.430207789E-1,-1.605623364E0,-7.798352838E-1
3.977949806E0,-7.111550122E-2,-1.423463225E0,-7.324310541E-1
3.983007410E0,-8.264946751E-3,-1.248759985E0,-6.818310618E-1
3.988065014E0,3.913928196E-2,-1.098557830E0,-6.248394847E-1
3.993135691E0,7.589086145E-2,-9.744548202E-1,-5.619889498E-1
3.998193295E0,1.030550823E-1,-8.860379457E-1,-4.911489189E-1
4.003250900E0,1.126424521E-1,-8.370357752E-1,-4.117867649E-1
4.008308556E0,1.126424521E-1,-8.072084188E-1,-3.420120180E-1
4.013366160E0,1.062508747E-1,-7.986863256E-1,-2.802267373E-1
4.018423764E0,9.985928982E-2,-8.114694357E-1,-2.163109183E-1
4.023483504E0,9.506560117E-2,-8.365031481E-1,-1.550582647E-1
4.028541108E0,8.281508088E-2,-8.626021147E-1,-1.071213931E-1
4.033598712E0,8.174981922E-2,-8.881683946E-1,-6.184769422E-2
4.038656368E0,9.080455452E-2,-9.030821323E-1,-1.710663363E-2
4.043713972E0,9.932666272E-2,-9.094737172E-1,1.804706268E-2
4.048771577E0,1.174361408E-1,-9.121368527E-1,4.361338541E-2
4.053829389E0,1.499266773E-1,-9.030821323E-1,6.385339051E-2
4.058886993E0,1.930698603E-1,-8.801789880E-1,7.610392570E-2
4.063944597E0,2.388761938E-1,-8.556779027E-1,7.770182937E-2
4.069002254E0,2.948025167E-1,-8.290463686E-1,6.971234828E-2
4.074059806E0,3.592509329E-1,-7.906968594E-1,5.959234014E-2
4.079117462E0,4.284930825E-1,-7.534126043E-1,4.201549292E-2
4.084175535E0,5.057247281E-1,-7.123999596E-1,1.112284884E-2
4.089233139E0,5.824237466E-1,-6.751157641E-1,-2.988979779E-2
4.094290743E0,6.623184681E-1,-6.431578398E-1,-7.676138729E-2
4.099348400E0,7.427458763E-1,-6.191893816E-1,-1.305572093E-1
4.104406004E0,8.226406574E-1,-5.888293982E-1,-1.875488013E-1
4.109463608E0,8.982743025E-1,-5.595346093E-1,-2.466709167E-1
4.114524337E0,9.669838548E-1,-5.360988379E-1,-3.079235554E-1
4.119581941E0,1.024508119E0,-5.121304393E-1,-3.654477894E-1
4.124639545E0,1.066586018E0,-4.950861931E-1,-4.149825573E-1
4.129697150E0,1.085760713E0,-4.854988158E-1,-4.485383332E-1
4.134754806E0,1.071912289E0,-4.886946380E-1,-4.645173252E-1
4.139812358E0,1.020779610E0,-5.062714815E-1,-4.645173252E-1
4.144858035E0,9.275690913E-1,-5.281093717E-1,-4.378857315E-1
4.149915900E0,7.992048860E-1,-5.472841263E-1,-3.931446671E-1
4.154973712E0,6.500679851E-1,-5.664588809E-1,-3.372183144E-1
4.160031577E0,4.913436174E-1,-5.717851520E-1,-2.764983177E-1
4.165089493E0,3.342172503E-1,-5.595346093E-1,-2.253656536E-1
4.170147358E0,1.866782755E-1,-5.089346170E-1,-1.950056404E-1
4.175216316E0,5.618349835E-2,-4.109303653E-1,-1.955382675E-1
4.180274129E0,-4.821232706E-2,-2.596629560E-1,-2.237677574E-1
4.185331993E0,-1.201176271E-1,-8.176397532E-2,-2.637151480E-1
4.190389858E0,-1.632607877E-1,7.802555710E-2,-3.084561825E-1
4.195447775E0,-1.946860701E-1,1.808234900E-1,-3.478709459E-1
4.200505587E0,-2.245134413E-1,2.090529799E-1,-3.734372854E-1
4.205528660E0,-2.628629506E-1,1.493982226E-1,-3.835572898E-1
4.210586577E0,-3.033429682E-1,-1.198920794E-2,-3.792962134E-1
4.215644389E0,-3.486166298E-1,-2.852292955E-1,-3.734372854E-1
4.220702254E0,-3.997493088E-1,-6.468862295E-1,-3.681109548E-1
4.225760118E0,-4.487514496E-1,-1.056480050E0,-3.579909503E-1
4.230817931E0,-4.849703610E-1,-1.441040158E0,-3.292288482E-1
4.235883452E0,-5.068082213E-1,-1.718541265E0,-2.674435675E-1
4.240941316E0,-5.100039840E-1,-1.836785555E0,-1.950056404E-1
4.245999181E0,-4.711219370E-1,-1.787250757E0,-1.433403641E-1
4.251057045E0,-3.534103334E-1,-1.570469618E0,-1.129803509E-1
4.256114910E0,-1.190523580E-1,-1.185909510E0,-9.274033457E-2
4.261172722E0,2.356804013E-1,-6.298420429E-1,-6.344559044E-2
4.266256681E0,6.894826889E-1,3.967607021E-2,-2.083505504E-2
4.271314545E0,1.167253375E0,7.502068281E-1,1.112284884E-2
4.276372358E0,1.612533450E0,1.428779721E0,2.337337844E-2
4.281430222E0,1.969396710E0,2.011478901E0,6.329163443E-3
4.286488087E0,2.206950188E0,2.451965332E0,-5.918454006E-2
4.291545952E0,2.306019783E0,2.727335930E0,-1.641130149E-1
4.296606056E0,2.250626326E0,2.823742390E0,-2.956730425E-1
4.301663920E0,2.034377575E0,2.731064320E0,-4.448099136E-1
4.306721733E0,1.662068248E0,2.406158924E0,-6.104584336E-1
4.311779597E0,1.176840782E0,1.796828389E0,-7.862269282E-1
4.316837462E0,6.916132569E-1,9.334321618E-1,-9.241785407E-1
4.321895327E0,3.235646486E-1,-1.518499851E-2,-9.550711513E-1
4.326951733E0,1.243603528E-1,-8.125347495E-1,-8.570669293E-1
4.332009597E0,7.322770357E-2,-1.353155851E0,-6.914184690E-1
4.337067410E0,1.286214143E-1,-1.617873907E0,-5.140520334E-1
4.342125275E0,2.804214358E-1,-1.604025364E0,-3.436098993E-1
4.347183139E0,5.110510588E-1,-1.337176919E0,-1.848856360E-1
4.352241056E0,8.013353348E-1,-8.647326231E-1,-6.291295588E-2
4.357280066E0,1.128371239E0,-2.607282400E-1,-5.950495834E-4
4.362337931E0,1.465527177E0,3.810930252E-1,3.242811933E-2
4.367395795E0,1.787236691E0,9.728469253E-1,6.491865963E-2
4.372453608E0,2.092434645E0,1.447954416E0,1.181818396E-1
4.377511525E0,2.351826191E0,1.773925185E0,2.108597606E-1
4.382569337E0,2.565944195E0,1.996032476E0,3.370935023E-1
4.387681889E0,2.719874859E0,2.160083055E0,4.665229917E-1
4.392739702E0,2.797106266E0,2.263946295E0,5.783756971E-1
4.397797514E0,2.800834656E0,2.279392719E0,6.641294360E-1
4.402855379E0,2.741179943E0,2.210150480E0,7.232514620E-1
4.407913243E0,2.621870279E0,2.095102072E0,7.663946748E-1
4.412971108E0,2.444504261E0,1.994967222E0,8.036789298E-1
4.418028972E0,2.240506172E0,1.872994661E0,8.106030822E-1
4.423063295E0,2.029583931E0,1.687638760E0,7.738515139E-1
4.428121108E0,1.825586200E0,1.451682925E0,6.886304617E-1
4.433178972E0,1.618392467E0,1.210400701E0,5.528093576E-1
4.438236837E0,1.408002973E0,1.027175426E0,3.743776977E-1
4.443294702E0,1.210396528E0,9.334321618E-1,1.842281669E-1
4.448352566E0,1.052204847E0,8.913542032E-1,-2.403084747E-2
4.453390275E0,9.563311934E-1,8.695163131E-1,-2.482688129E-1
4.458448139E0,9.275690913E-1,8.764405251E-1,-4.757025540E-1
4.463506004E0,9.680491090E-1,9.078658223E-1,-6.823636889E-1
4.468563868E0,1.054335475E0,9.675205946E-1,-8.512079716E-1
4.473621733E0,1.165122867E0,1.057002783E0,-9.779743552E-1
4.478679597E0,1.269518733E0,1.163529158E0,-1.061597347E0
4.483737150E0,1.346750259E0,1.250880718E0,-1.102610111E0
4.488795066E0,1.384034395E0,1.298817635E0,-1.105273247E0
4.493852879E0,1.379240870E0,1.295621753E0,-1.069586873E0
4.498910743E0,1.339293480E0,1.240228176E0,-1.000344753E0
4.503968608E0,1.263659716E0,1.125179648E0,-9.071343541E-1
4.509026472E0,1.161394477E0,1.006402731E0,-7.952815890E-1
4.514046733E0,1.054335475E0,9.552700520E-1,-6.701131463E-1
4.519104597E0,9.595270157E-1,9.552700520E-1,-5.454773307E-1
4.524162462E0,8.828280568E-1,9.803037643E-1,-4.293636084E-1
4.529220327E0,8.316953778E-1,1.011196494E0,-3.228372633E-1
4.534278191E0,8.071942925E-1,1.051676512E0,-2.232351303E-1
4.539336056E0,7.986721992E-1,1.125712276E0,-1.220350787E-1
4.544441056E0,8.029332757E-1,1.237564921E0,-2.669400536E-2
4.549498920E0,8.210427761E-1,1.357939720E0,5.905970931E-2
4.554556785E0,8.545985222E-1,1.466596603E0,1.378892064E-1
4.559614650E0,8.977417350E-1,1.552882910E0,2.060660720E-1
4.564672514E0,9.483417273E-1,1.599221945E0,2.667860985E-1
4.569730327E0,1.001072288E0,1.607743979E0,3.168534636E-1
4.574795847E0,1.043150187E0,1.576318741E0,3.472134769E-1
4.579853712E0,1.071379662E0,1.495891333E0,3.589313924E-1
4.584911577E0,1.086825967E0,1.380310297E0,3.530724347E-1
4.589969441E0,1.084695458E0,1.242358565E0,3.365608454E-1
4.595027254E0,1.066053391E0,1.086830139E0,3.046029508E-1
4.600085118E0,1.034628034E0,9.222468734E-1,2.593292296E-1
4.605076837E0,9.973438382E-1,7.661857605E-1,2.135229111E-1
4.610134702E0,9.600595832E-1,6.271689534E-1,1.645208001E-1
4.615192566E0,9.275690913E-1,5.035983324E-1,1.133881509E-1
4.620250431E0,9.046659470E-1,3.858867288E-1,6.971234828E-2
4.625308295E0,8.908174634E-1,2.841540575E-1,2.869969606E-2
4.630366160E0,8.780343533E-1,2.111835033E-1,-6.453999318E-3
4.635450118E0,8.721753955E-1,1.696382314E-1,-4.107506201E-2
4.640507931E0,8.727080226E-1,1.531266421E-1,-6.610874832E-2
4.645565847E0,8.854911923E-1,1.616487503E-1,-7.835927606E-2
4.650623712E0,9.057311416E-1,1.893455982E-1,-7.995717973E-2
4.655681525E0,9.286343455E-1,2.324887663E-1,-7.889191806E-2
4.660739389E0,9.547333121E-1,2.798929811E-1,-6.983717531E-2
4.665823868E0,9.787017703E-1,3.267646134E-1,-6.238032877E-2
4.670881733E0,9.962785840E-1,3.715056479E-1,-5.066243187E-2
4.675939597E0,1.007996440E0,4.071919918E-1,-3.415085003E-2
4.680997462E0,1.011192322E0,4.274320006E-1,-1.284558047E-2
4.686055327E0,9.989417195E-1,4.279645979E-1,5.263899453E-3
4.691113139E0,9.733753800E-1,4.306277931E-1,3.189548850E-2
4.696146525E0,9.435480833E-1,4.540635943E-1,6.491865963E-2
4.701204389E0,9.105248451E-1,4.609878063E-1,1.043334082E-1
4.706262254E0,8.838932514E-1,4.455415010E-1,1.448134184E-1
4.711320118E0,8.615227342E-1,4.221056700E-1,1.852934211E-1
4.716377931E0,8.434132934E-1,3.965393603E-1,2.231102884E-1
4.721435847E0,8.263690472E-1,3.778972328E-1,2.614597678E-1
4.726514754E0,8.125206828E-1,3.762993515E-1,2.992766201E-1
4.731572618E0,8.024005890E-1,3.912130296E-1,3.333650529E-1
4.736630483E0,7.965416312E-1,4.237035513E-1,3.658556044E-1
4.741688347E0,7.928132415E-1,4.689772725E-1,3.919545412E-1
4.746746160E0,7.976069450E-1,5.185120106E-1,4.095313847E-1
4.751804077E0,8.071942925E-1,5.744383335E-1,4.201840460E-1
4.756864129E0,8.189122081E-1,6.282341480E-1,4.164555967E-1
4.761921993E0,8.300974965E-1,6.703120470E-1,4.074008763E-1
4.766979858E0,8.359564543E-1,7.049331665E-1,3.882261217E-1
4.772037670E0,8.407500982E-1,7.187815309E-1,3.685187399E-1
4.777095587E0,8.412827253E-1,7.155857682E-1,3.456155956E-1
4.782153452E0,8.380869627E-1,7.022700310E-1,3.157882094E-1
4.787210431E0,8.322280049E-1,6.873562932E-1,2.838303149E-1
4.792268295E0,8.263690472E-1,6.783015728E-1,2.497418672E-1
4.797326160E0,8.215753436E-1,6.852257252E-1,2.177839577E-1
4.802384025E0,8.093248606E-1,6.905521154E-1,1.852934211E-1
4.807441889E0,8.039985299E-1,6.889542341E-1,1.639881581E-1
4.812499754E0,7.949438095E-1,6.868236661E-1,1.618576348E-1
4.817559910E0,7.736385465E-1,6.852257252E-1,1.666513234E-1
4.822617775E0,7.491374612E-1,6.793668270E-1,1.730429083E-1
4.827675639E0,7.161142826E-1,6.601920724E-1,1.826302707E-1
4.832733504E0,6.766995788E-1,6.420825720E-1,1.911523789E-1
4.837791368E0,6.260995269E-1,6.308973432E-1,2.092618495E-1
4.842849233E0,5.621836782E-1,6.287667751E-1,2.332302779E-1
4.847903452E0,4.977352023E-1,6.202446818E-1,2.534703016E-1
4.852961316E0,4.199709892E-1,5.984067917E-1,2.769060731E-1
4.858019181E0,3.363477886E-1,5.632531047E-1,3.024724126E-1
4.863076993E0,2.505940795E-1,5.249035954E-1,3.333650529E-1
4.868134910E0,1.648403704E-1,4.812277853E-1,3.631924391E-1
4.873192775E0,7.748875767E-2,4.466067255E-1,3.876934946E-1
4.878230379E0,-1.945021376E-2,4.135835767E-1,4.068682492E-1
4.883288243E0,-1.222481504E-1,3.699077666E-1,4.175208807E-1
4.888346108E0,-2.266439646E-1,3.219709098E-1,4.196514189E-1
4.893404025E0,-3.315724432E-1,2.793603539E-1,3.988787532E-1
4.898461837E0,-4.391640723E-1,2.458045483E-1,3.541377187E-1
4.903519702E0,-5.462229848E-1,2.202382535E-1,2.811671495E-1
4.908624441E0,-6.687282920E-1,1.760298014E-1,1.932829171E-1
4.913682306E0,-7.997556925E-1,1.019939855E-1,9.155024588E-2
4.918740170E0,-9.504904747E-1,1.624027640E-2,-2.083505504E-2
4.923797983E0,-1.121465325E0,-7.004606724E-2,-1.268287897E-1
4.928855847E0,-1.301494837E0,-1.488755643E-1,-2.317572385E-1
4.933913764E0,-1.486317992E0,-2.149219066E-1,-3.286962211E-1
4.938934077E0,-1.677000165E0,-2.580650747E-1,-4.128520489E-1
4.943991941E0,-1.875671864E0,-2.873598337E-1,-4.852899313E-1
4.949049806E0,-2.071680546E0,-3.390251100E-1,-5.630542040E-1
4.954107670E0,-2.243187904E0,-4.253114462E-1,-6.461447477E-1
4.959165535E0,-2.394455194E0,-5.424904227E-1,-7.137889862E-1
4.964223400E0,-2.543059826E0,-6.894967556E-1,-7.436164021E-1
4.969292202E0,-2.722023964E0,-8.673958182E-1,-7.265721560E-1
4.974350066E0,-2.923358917E0,-1.041566253E0,-6.647868752E-1
4.979407931E0,-3.099659920E0,-1.144364238E0,-5.731741786E-1
4.984465795E0,-3.212045193E0,-1.147560120E0,-4.794309735E-1
4.989523608E0,-3.268504143E0,-1.070328355E0,-4.069930911E-1
4.994581525E0,-3.282885313E0,-9.451600313E-1,-3.569256961E-1
4.999638191E0,-3.256786108E0,-8.024147749E-1,-3.100540936E-1
5.004696056E0,-3.209914446E0,-6.570062637E-1,-2.599866986E-1
5.009753920E0,-3.154520988E0,-5.105324984E-1,-2.024624795E-1
5.014811785E0,-3.088474512E0,-3.672545850E-1,-1.374814212E-1
5.019869597E0,-3.017634392E0,-2.516734898E-1,-6.557612121E-2
5.024927514E0,-2.942000866E0,-2.122587413E-1,1.218811236E-2
5.030025431E0,-2.881813526E0,-2.601956129E-1,9.261551499E-2
5.035083295E0,-2.834409237E0,-3.613956571E-1,1.778365970E-1
5.040141160E0,-2.803516626E0,-4.625956714E-1,2.598618865E-1
5.045199025E0,-2.795526981E0,-5.435556769E-1,3.285713494E-1
5.050256889E0,-2.791798830E0,-6.218525767E-1,3.504092991E-1
5.055314754E0,-2.779015541E0,-7.193241715E-1,3.131250441E-1
5.060334337E0,-2.777950048E0,-8.002842069E-1,2.289692312E-1
5.065392202E0,-2.792331219E0,-8.412968516E-1,1.069965735E-1
5.070450066E0,-2.809908152E0,-8.359705210E-1,-4.640138149E-2
5.075507931E0,-2.831746101E0,-7.704567909E-1,-2.093867064E-1
5.080565795E0,-2.844529152E0,-6.783115268E-1,-3.611867428E-1
5.085623660E0,-2.837072372E0,-6.021451354E-1,-4.831594229E-1
5.090680066E0,-2.810440779E0,-5.925578475E-1,-5.683804750E-1
5.095737931E0,-2.754514456E0,-6.793767810E-1,-6.306983829E-1
5.100795795E0,-2.688468218E0,-7.757831812E-1,-6.482752562E-1
5.105853660E0,-2.630943775E0,-7.853705287E-1,-5.998057723E-1
5.110911472E0,-2.588333368E0,-7.661957741E-1,-5.289657712E-1
5.115969389E0,-2.565962791E0,-7.667284012E-1,-4.607889056E-1
5.121027670E0,-2.560636520E0,-8.295789361E-1,-4.133846462E-1
5.126085535E0,-2.547853231E0,-1.024522066E0,-4.139172733E-1
5.131143400E0,-2.526015282E0,-1.293501139E0,-4.549299479E-1
5.136201264E0,-2.507373333E0,-1.542240143E0,-5.065952539E-1
5.141259129E0,-2.492459774E0,-1.729726553E0,-5.699783564E-1
5.146316993E0,-2.469023943E0,-1.874602437E0,-6.333615780E-1
5.151375483E0,-2.427478552E0,-2.011488676E0,-6.823636889E-1
5.156433347E0,-2.363030195E0,-2.135591984E0,-7.143215537E-1
5.161491264E0,-2.286331177E0,-2.220280409E0,-7.281700373E-1
5.166549129E0,-2.198979378E0,-2.267152071E0,-7.223110795E-1
5.171606993E0,-2.111627817E0,-2.299109936E0,-7.073974013E-1
5.176664858E0,-2.032265902E0,-2.314023495E0,-6.781026721E-1
5.181717931E0,-1.950240374E0,-2.295381546E0,-6.498731375E-1
5.186775795E0,-1.871410728E0,-2.261293173E0,-6.189805269E-1
5.191833712E0,-1.795777082E0,-2.223476171E0,-5.870226026E-1
5.196891577E0,-1.721741319E0,-2.173941612E0,-5.545321107E-1
5.201949441E0,-1.656227469E0,-2.111090899E0,-5.220415592E-1
5.207007306E0,-1.592844367E0,-2.029598236E0,-4.906162620E-1
5.212066525E0,-1.520406485E0,-1.922539234E0,-4.666478336E-1
5.217124389E0,-1.444772840E0,-1.813882351E0,-4.554625750E-1
5.222182306E0,-1.364878058E0,-1.732922435E0,-4.559952021E-1
5.227240170E0,-1.285515785E0,-1.683920145E0,-4.639846683E-1
5.232298035E0,-1.214675903E0,-1.666343451E0,-4.773004651E-1
5.237355900E0,-1.151825309E0,-1.685518026E0,-4.810288846E-1
5.242490900E0,-1.083115816E0,-1.721204519E0,-4.725067914E-1
5.247548764E0,-1.004818916E0,-1.763814926E0,-4.693109989E-1
5.252606629E0,-9.185325503E-1,-1.825600266E0,-4.725067914E-1
5.257664493E0,-8.338441253E-1,-1.900168777E0,-4.804962575E-1
5.262722358E0,-7.443619967E-1,-1.977400303E0,-4.959425926E-1
5.267780222E0,-6.687282920E-1,-2.039718390E0,-5.145847201E-1
5.272761056E0,-6.053451300E-1,-2.068480253E0,-5.369552374E-1
5.277818920E0,-5.419619679E-1,-2.054099321E0,-5.529341698E-1
5.282876785E0,-4.812419415E-1,-1.997640252E0,-5.587931275E-1
5.287934650E0,-4.082714021E-1,-1.900168777E0,-5.630542040E-1
5.292992566E0,-3.235829473E-1,-1.762217045E0,-5.721089244E-1
5.298050431E0,-2.287744880E-1,-1.583785415E0,-5.769026279E-1
5.303103660E0,-1.227807924E-1,-1.372863293E0,-5.843594670E-1
5.308161525E0,-1.518915873E-2,-1.141701102E0,-5.971426368E-1
5.313219389E0,9.400033951E-2,-8.972231746E-1,-6.067299843E-1
5.318277254E0,2.047877461E-1,-6.452883482E-1,-6.099257469E-1
5.323335118E0,3.054551482E-1,-4.162566960E-1,-6.099257469E-1
5.328392983E0,4.013288617E-1,-2.154545337E-1,-6.056647301E-1
5.333431108E0,4.934741557E-1,-5.033869296E-2,-5.816962719E-1
5.338488972E0,5.872173905E-1,7.269924134E-2,-5.444120765E-1
5.343546837E0,6.649816632E-1,1.430066377E-1,-5.023341775E-1
5.348604702E0,7.235711217E-1,1.653771698E-1,-4.639846683E-1
5.353662566E0,7.661816478E-1,1.536592692E-1,-4.165804684E-1
5.358720431E0,7.874869704E-1,1.174403057E-1,-3.697088361E-1
5.363810900E0,7.912153602E-1,6.364449859E-2,-3.244351745E-1
5.368868764E0,7.800301313E-1,7.939543575E-4,-2.695740759E-1
5.373926629E0,7.677795887E-1,-7.697028667E-2,-2.179088145E-1
5.378984493E0,7.587248087E-1,-1.744419038E-1,-1.752982587E-1
5.384042358E0,7.539311051E-1,-2.809682488E-1,-1.300245672E-1
5.389100222E0,7.640511394E-1,-3.885598481E-1,-8.741401881E-2
5.394129389E0,7.837585211E-1,-5.121304393E-1,-5.332559347E-2
5.399187254E0,8.087922335E-1,-6.511473060E-1,-3.042242862E-2
5.404245118E0,8.428806663E-1,-7.928273678E-1,-1.444347575E-2
5.409302983E0,8.780343533E-1,-9.217242599E-1,-5.921366625E-3
5.414360847E0,9.153185487E-1,-1.027717948E0,-1.284558047E-2
5.419418712E0,9.462112188E-1,-1.109743237E0,-3.415085003E-2
5.424478920E0,9.589943290E-1,-1.164604306E0,-6.983717531E-2
5.429536837E0,9.600595832E-1,-1.194964290E0,-1.140456125E-1
5.434594702E0,9.488743544E-1,-1.196029544E0,-1.689066887E-1
5.439652566E0,9.291669726E-1,-1.163538933E0,-2.211046070E-1
5.444710431E0,9.009375572E-1,-1.112939000E0,-2.701067030E-1
5.449768295E0,8.583269715E-1,-1.055947423E0,-3.143151402E-1
5.454790275E0,8.034659028E-1,-1.004282117E0,-3.505341113E-1
5.459848087E0,7.390174270E-1,-9.664652944E-1,-3.750351667E-1
5.464906004E0,6.724385023E-1,-9.307789803E-1,-3.910141289E-1
5.469963868E0,6.031963825E-1,-8.860379457E-1,-3.920793831E-1
5.475021733E0,5.296931267E-1,-8.269158006E-1,-3.984709680E-1
5.480079597E0,4.599183798E-1,-7.603368163E-1,-4.197762311E-1
5.485189025E0,3.938720226E-1,-6.761809587E-1,-4.634520411E-1
5.490246941E0,3.278256953E-1,-5.467514992E-1,-5.140520334E-1
5.495304806E0,2.591161728E-1,-3.571345806E-1,-5.609236360E-1
5.500362670E0,1.898740679E-1,-1.073302925E-1,-5.976752639E-1
5.505420535E0,1.243603528E-1,1.680403203E-1,-6.200457811E-1
5.510478400E0,6.257507205E-2,3.986698687E-1,-6.131215692E-1
5.515536160E0,-5.601787008E-3,5.201098919E-1,-5.614562631E-1
5.520594077E0,-9.188813716E-2,4.828256965E-1,-4.751699269E-1
5.525651941E0,-1.930881590E-1,2.745666802E-1,-3.686436117E-1
5.530709754E0,-3.070713878E-1,-7.217659801E-2,-2.461382896E-1
5.535767670E0,-4.205219448E-1,-5.009451509E-1,-1.257635057E-1
5.540825535E0,-5.281134844E-1,-9.147999883E-1,-1.231294870E-2
5.545884025E0,-5.973556042E-1,-1.224259019E0,8.888708800E-2
5.550941889E0,-5.898987651E-1,-1.364873767E0,1.671839654E-1
5.555999806E0,-4.716545641E-1,-1.330785394E0,2.263060808E-1
5.561057618E0,-2.181218565E-1,-1.106547356E0,2.683839798E-1
5.566115535E0,1.605793089E-1,-6.697894335E-1,2.843629420E-1
5.571173400E0,6.213058233E-1,-6.312185526E-2,2.635902762E-1
5.576232097E0,1.083097577E0,5.755036473E-1,1.932829171E-1
5.581289962E0,1.470853448E0,1.133701801E0,5.959234014E-2
5.586347879E0,1.741430402E0,1.558741927E0,-1.316224635E-1
5.591405743E0,1.866066217E0,1.826122999E0,-3.633172810E-1
5.596463608E0,1.825586200E0,1.906017780E0,-6.030015945E-1
5.601521472E0,1.608805060E0,1.781381965E0,-8.107279539E-1
5.606569441E0,1.261529207E0,1.431975603E0,-9.460164309E-1
5.611627358E0,8.737732768E-1,8.807016611E-1,-9.880943298E-1
5.616685222E0,5.504657626E-1,2.724361420E-1,-9.401574731E-1
5.621743087E0,3.400762081E-1,-2.346292734E-1,-8.448163867E-1
5.626800952E0,2.452677786E-1,-5.771114826E-1,-7.313658595E-1
5.631858816E0,2.383435518E-1,-7.741852403E-1,-6.008710265E-1
5.636927306E0,3.038572371E-1,-8.279810548E-1,-4.522667825E-1
5.641985222E0,4.460699260E-1,-7.257157564E-1,-2.903467417E-1
5.647043087E0,6.575248241E-1,-4.503451288E-1,-1.358835101E-1
5.652100952E0,9.233080149E-1,-3.063131869E-2,-1.497610845E-2
5.657158816E0,1.218918562E0,4.599225223E-1,6.598392129E-2
5.662216681E0,1.515594482E0,9.424869418E-1,1.224428937E-1
5.667276160E0,1.786171556E0,1.362733364E0,1.767713130E-1
5.672334077E0,2.010941744E0,1.695628285E0,2.529376745E-1
5.677391941E0,2.180318594E0,1.925725222E0,3.450829685E-1
5.682449806E0,2.290573597E0,2.070600986E0,4.420219362E-1
5.687507670E0,2.352891445E0,2.152626276E0,5.197861195E-1
5.692565535E0,2.379523039E0,2.144636869E0,5.730493069E-1
5.697605900E0,2.378990173E0,2.033849478E0,6.055398583E-1
5.702663816E0,2.359815598E0,1.862874627E0,6.193883419E-1
5.707721681E0,2.317737818E0,1.681779861E0,6.236493587E-1
5.712779545E0,2.234114647E0,1.535838723E0,6.209862232E-1
5.717837410E0,2.107348204E0,1.469259739E0,6.151272655E-1
5.722895275E0,1.957678914E0,1.435171366E0,5.938220024E-1
5.727967306E0,1.806411505E0,1.342493415E0,5.405588150E-1
5.733025170E0,1.671655655E0,1.161398649E0,4.361629784E-1
5.738083087E0,1.565661907E0,9.430195093E-1,2.923524082E-1
5.743140900E0,1.478310347E0,7.901542187E-1,1.426828951E-1
5.748198816E0,1.405339718E0,7.411521077E-1,5.796531681E-3
5.753256681E0,1.353674412E0,7.629899979E-1,-1.236329749E-1
5.758313972E0,1.347815633E0,8.050678968E-1,-2.562582791E-1
5.763371837E0,1.390958786E0,8.269057870E-1,-3.856878281E-1
5.768429754E0,1.479375601E0,8.141226768E-1,-4.986057281E-1
5.773487618E0,1.592826247E0,7.731100321E-1,-5.747720599E-1
5.778545483E0,1.701483011E0,7.118573189E-1,-6.104584336E-1
5.783603347E0,1.786704183E0,6.308973432E-1,-6.061973572E-1
5.788661160E0,1.828249454E0,5.243709683E-1,-5.753047466E-1
5.793719025E0,1.810672522E0,3.800277412E-1,-5.204436779E-1
5.798776941E0,1.721723080E0,2.010634989E-1,-4.453425705E-1
5.803834806E0,1.565661907E0,7.718168199E-3,-3.670457006E-1
5.808892670E0,1.361131430E0,-1.318313479E-1,-2.860856652E-1
5.813950535E0,1.133165002E0,-1.994755864E-1,-2.136477530E-1
5.819009285E0,9.030680060E-1,-2.303682268E-1,-1.534603536E-1
5.824067150E0,7.022658587E-1,-2.522061169E-1,-9.700138867E-2
5.829125066E0,5.494005680E-1,-2.612608671E-1,-4.000979662E-2
5.834182931E0,4.492657185E-1,-2.324987501E-1,3.133372869E-3
5.839240795E0,3.938720226E-1,-1.547345221E-1,2.497127466E-2
5.844298660E0,3.810888529E-1,-2.850079164E-2,3.083022311E-2
5.849354441E0,4.066551924E-1,1.440718919E-1,2.497127466E-2
5.854412306E0,4.561899304E-1,3.464719653E-1,1.112284884E-2
5.859470170E0,5.185078979E-1,5.589920282E-1,-2.725576516E-3
5.864528087E0,5.808258057E-1,7.608594894E-1,-6.453999318E-3
5.869585952E0,6.431437135E-1,9.483458400E-1,-5.921366625E-3
5.874643816E0,6.948089600E-1,1.106537580E0,-1.127681346E-3
5.879668035E0,7.406153083E-1,1.238097668E0,1.112284884E-2
5.884725900E0,7.816280127E-1,1.345156550E0,2.443864383E-2
5.889783764E0,8.141185641E-1,1.431442857E0,3.828706965E-2
5.894841629E0,8.354237676E-1,1.482575536E0,5.320075899E-2
5.899899493E0,8.455438018E-1,1.471922994E0,7.557129860E-2
5.904957358E0,8.455438018E-1,1.388299823E0,9.953972697E-2
5.910037306E0,8.391522765E-1,1.226379752E0,1.235081553E-1
5.915095222E0,8.199775219E-1,1.010663748E0,1.517376304E-1
5.920153087E0,7.954764366E-1,7.683163285E-1,1.778365970E-1
5.925210952E0,7.608553767E-1,5.174467564E-1,1.938155293E-1
5.930268868E0,7.230384946E-1,2.873498499E-1,2.028702796E-1
5.935326681E0,6.937437654E-1,9.240661561E-2,2.018050253E-1
5.940406733E0,6.788300276E-1,-6.045869738E-2,1.938155293E-1
5.945464597E0,6.884174347E-1,-1.669850498E-1,1.836955398E-1
5.950522462E0,7.177121639E-1,-2.261071652E-1,1.714450121E-1
5.955580327E0,7.624532580E-1,-2.442166507E-1,1.591944695E-1
5.960638243E0,8.269016743E-1,-2.234440148E-1,1.437481493E-1
5.965696108E0,8.972090483E-1,-1.616587192E-1,1.224428937E-1
5.970740639E0,9.813649058E-1,-7.643765211E-2,1.022028849E-1
5.975798504E0,1.059129238E0,6.652902812E-3,9.101761132E-2
5.980856368E0,1.123577595E0,1.041245088E-1,8.782182634E-2
5.985914285E0,1.176308155E0,1.978677064E-1,9.314814955E-2
5.990972150E0,1.218386054E0,2.713708878E-1,1.038007811E-1
5.996030014E0,1.248746037E0,3.161119521E-1,1.176492050E-1
6.001089129E0,1.268453360E0,3.320909142E-1,1.352260411E-1
6.006146993E0,1.279638648E0,3.155793250E-1,1.559986919E-1
6.011204858E0,1.279638648E0,2.868172228E-1,1.810323745E-1
6.016262775E0,1.257268071E0,2.585877180E-1,2.103271186E-1
6.021320639E0,1.224777579E0,2.330214083E-1,2.460134625E-1
6.026378504E0,1.190156579E0,2.069224566E-1,2.886239886E-1
6.031434233E0,1.157133341E0,1.770950705E-1,3.413545489E-1
6.036492097E0,1.127306104E0,1.472676992E-1,3.919545412E-1
6.041550014E0,1.092152238E0,1.323540062E-1,4.388261437E-1
6.046607879E0,1.063390136E0,1.318213642E-1,4.809040725E-1
6.051665743E0,1.048476458E0,1.493982226E-1,5.133945942E-1
6.056723608E0,1.037291288E0,1.893455982E-1,5.346998572E-1
6.061773712E0,1.034095526E0,2.511308789E-1,5.389608741E-1
6.066831577E0,1.032497644E0,3.209056556E-1,5.384283066E-1
6.071889493E0,1.031432271E0,3.880172670E-1,5.293735266E-1
6.076947358E0,1.023442864E0,4.466067255E-1,5.197861195E-1
6.082005222E0,1.005333304E0,4.854888320E-1,4.995461702E-1
6.087063087E0,9.760385752E-1,5.073267817E-1,4.755777419E-1
6.092174962E0,9.350259304E-1,5.051962137E-1,4.441524446E-1
6.097232827E0,8.860238194E-1,4.881520271E-1,4.111292958E-1
6.102290743E0,8.327606320E-1,4.668467641E-1,3.775734901E-1
6.107348556E0,7.890847921E-1,4.604551494E-1,3.477461040E-1
6.112406472E0,7.443437576E-1,4.812277853E-1,3.221797943E-1
6.117464337E0,7.054616213E-1,5.243709683E-1,2.976787388E-1
6.122482827E0,6.676447988E-1,5.845583081E-1,2.785039842E-1
6.127540691E0,6.245015860E-1,6.506047249E-1,2.635902762E-1
6.132598556E0,5.760321617E-1,7.075963020E-1,2.497418672E-1
6.137656420E0,5.280953050E-1,7.571310401E-1,2.438829243E-1
6.142714337E0,4.695057273E-1,7.752405405E-1,2.428176552E-1
6.147772202E0,3.986656964E-1,7.619247437E-1,2.502745092E-1
6.152785379E0,3.182383180E-1,7.251731157E-1,2.635902762E-1
6.157843035E0,2.239624858E-1,6.671162248E-1,2.843629420E-1
6.162900691E0,1.185014024E-1,5.930804610E-1,2.992766201E-1
6.167958400E0,4.518215545E-3,5.105225444E-1,3.115271330E-1
6.173016056E0,-1.158565655E-1,4.407477975E-1,3.147229552E-1
6.178073764E0,-2.399597615E-1,3.885498643E-1,3.088639975E-1
6.183166577E0,-3.661935031E-1,3.640488088E-1,2.816997766E-1
6.188224285E0,-5.084061027E-1,3.491351008E-1,2.289692312E-1
6.193281941E0,-6.660650969E-1,3.294277489E-1,1.437481493E-1
6.198339597E0,-8.365073204E-1,2.820235193E-1,2.816706523E-2
6.203397306E0,-1.017602086E0,1.712361127E-1,-1.071213931E-1
6.208455014E0,-1.200827360E0,-1.092394441E-2,-2.498667389E-1
6.213477618E0,-1.392574787E0,-2.378250808E-1,-3.862204552E-1
6.218535327E0,-1.591246486E0,-4.641935527E-1,-5.023341775E-1
6.223592983E0,-1.776602268E0,-6.442230940E-1,-5.982078910E-1
6.228650639E0,-1.919880271E0,-7.347705364E-1,-6.839615703E-1
6.233708347E0,-1.994448662E0,-6.921599507E-1,-7.622584701E-1
6.238766056E0,-2.007232189E0,-5.169241428E-1,-8.410879374E-1
6.243860691E0,-1.993383408E0,-2.713808715E-1,-9.113953710E-1
6.248918347E0,-2.011493206E0,-5.406711996E-2,-9.598648548E-1
6.253976056E0,-2.089790106E0,6.524239480E-2,-9.646585584E-1
6.259033712E0,-2.222415209E0,8.761292696E-2,-9.204500914E-1
6.264091368E0,-2.371552229E0,5.672027916E-2,-8.416205645E-1
6.269149077E0,-2.510569096E0,-2.210921235E-2,-7.457468510E-1
6.274169129E0,-2.625084877E0,-1.435492486E-1,-6.525362730E-1
6.279226837E0,-2.696990252E0,-2.905556262E-1,-5.683804750E-1
6.284284493E0,-2.714034319E0,-4.428882897E-1,-4.948773086E-1
6.289342150E0,-2.716697693E0,-5.882967710E-1,-4.368204474E-1
6.294399858E0,-2.714034319E0,-6.942904592E-1,-3.952752054E-1
6.299457566E0,-2.719360828E0,-7.225199938E-1,-3.452078104E-1
6.304552514E0,-2.728948116E0,-6.644631028E-1,-2.802267373E-1
6.309610222E0,-2.747057676E0,-5.398272872E-1,-2.067235410E-1
6.314667879E0,-2.763036489E0,-3.992124796E-1,-1.406771988E-1
6.319725587E0,-2.771558762E0,-2.873598337E-1,-8.421823382E-2
6.324783191E0,-2.776352167E0,-2.074650526E-1,-4.480348527E-2
6.329840900E0,-2.779015541E0,-1.510060877E-1,-2.030242421E-2
6.334876525E0,-2.753981829E0,-1.344945133E-1,-1.550873928E-2
6.339934233E0,-2.706044912E0,-1.611261070E-1,-2.669400536E-2
6.344991889E0,-2.634139538E0,-1.787029505E-1,-4.799927399E-2
6.350049597E0,-2.555842638E0,-1.723113507E-1,-9.700138867E-2
6.355107202E0,-2.479143858E0,-1.605934650E-1,-1.827551126E-1
6.360164910E0,-2.404042721E0,-1.840292513E-1,-2.898141146E-1
6.365249181E0,-2.341192007E0,-2.735114098E-1,-4.000688791E-1
6.370306889E0,-2.304440737E0,-4.226482809E-1,-4.964752197E-1
6.375364545E0,-2.301244736E0,-5.888293982E-1,-5.737068057E-1
6.380422202E0,-2.323082685E0,-7.480862737E-1,-6.179152727E-1
6.385479858E0,-2.365693331E0,-8.966905475E-1,-6.237742305E-1
6.390537618E0,-2.423750162E0,-1.021326303E0,-6.045994759E-1
6.395590066E0,-2.485535383E0,-1.132113695E0,-5.731741786E-1
6.400647722E0,-2.551048994E0,-1.233846307E0,-5.401510596E-1
6.405705379E0,-2.608573437E0,-1.352090597E0,-5.177804828E-1
6.410763087E0,-2.655977488E0,-1.476726413E0,-5.071278811E-1
6.415820743E0,-2.694327116E0,-1.592840195E0,-5.076604486E-1
6.420878452E0,-2.715632200E0,-1.721737027E0,-5.199109912E-1
6.425945639E0,-2.717230082E0,-1.867145538E0,-5.497384071E-1
6.431003347E0,-2.709773302E0,-2.004031897E0,-5.848920941E-1
6.436061004E0,-2.694327116E0,-2.102035999E0,-6.125889421E-1
6.441118712E0,-2.676750183E0,-2.136657238E0,-6.269699931E-1
6.446176316E0,-2.653847218E0,-2.136657238E0,-6.227089763E-1
6.451234077E0,-2.626150131E0,-2.132928848E0,-6.152521372E-1
6.456272045E0,-2.589931250E0,-2.127602339E0,-6.030015945E-1
6.461329702E0,-2.547853231E0,-2.112156153E0,-5.822289586E-1
6.466387358E0,-2.490329027E0,-2.085524559E0,-5.518689156E-1
6.471445066E0,-2.421086788E0,-2.050370932E0,-5.097910166E-1
6.476502722E0,-2.340126991E0,-2.012021303E0,-4.554625750E-1
6.481560379E0,-2.244253159E0,-1.961421371E0,-4.011341333E-1
6.486640170E0,-2.133998394E0,-1.910288692E0,-3.574583232E-1
6.491697827E0,-2.023743629E0,-1.855427623E0,-3.260330558E-1
6.496755535E0,-1.917217135E0,-1.788848639E0,-3.191088438E-1
6.501813191E0,-1.818680286E0,-1.716943383E0,-3.233698905E-1
6.506870847E0,-1.726534843E0,-1.652494907E0,-3.388161957E-1
6.511928556E0,-1.643977046E0,-1.601894975E0,-3.611867428E-1
6.516983608E0,-1.566745400E0,-1.570469618E0,-3.808941245E-1
6.522041264E0,-1.484187484E0,-1.548099160E0,-3.910141289E-1
6.527098972E0,-1.401629567E0,-1.545968652E0,-3.920793831E-1
6.532156629E0,-1.312680006E0,-1.569404483E0,-3.888835907E-1
6.537214285E0,-1.218936920E0,-1.600829601E0,-3.771657050E-1
6.542271993E0,-1.126791596E0,-1.627461195E0,-3.611867428E-1
6.547327566E0,-1.041570544E0,-1.642907619E0,-3.409467340E-1
6.552385222E0,-9.622083306E-1,-1.642907619E0,-3.239025176E-1
6.557442879E0,-8.881725669E-1,-1.640776992E0,-3.009993732E-1
6.562500587E0,-8.162672520E-1,-1.633852839E0,-2.780961990E-1
6.567558243E0,-7.454272509E-1,-1.613612771E0,-2.589214742E-1
6.572615952E0,-6.777830124E-1,-1.566208601E0,-2.450730354E-1
6.577679545E0,-6.021493077E-1,-1.485781312E0,-2.285614461E-1
6.582737202E0,-5.265156031E-1,-1.385113835E0,-2.120498568E-1
6.587794910E0,-4.423598349E-1,-1.296164274E0,-2.040603757E-1
6.592852566E0,-3.598019183E-1,-1.206149578E0,-2.029951215E-1
6.597910222E0,-2.756460905E-1,-1.096427441E0,-2.040603757E-1
6.602967931E0,-1.978818476E-1,-9.680631757E-1,-1.987340748E-1
6.608024806E0,-1.281070858E-1,-8.418294787E-1,-1.928751022E-1
6.613082514E0,-5.939759314E-2,-7.337052226E-1,-1.918098480E-1
6.618140170E0,7.897929754E-4,-6.378315091E-1,-1.880814284E-1
6.623197827E0,5.511823297E-2,-5.563389063E-1,-1.859509051E-1
6.628255535E0,1.025224552E-1,-4.956188202E-1,-1.795593202E-1
6.633313243E0,1.483287960E-1,-4.418230057E-1,-1.710372120E-1
6.638373712E0,1.930698603E-1,-4.114630222E-1,-1.731677353E-1
6.643431316E0,2.458004057E-1,-3.997451365E-1,-1.822224706E-1
6.648489025E0,2.969330549E-1,-3.938861787E-1,-1.875488013E-1
6.653546681E0,3.496635854E-1,-4.066693187E-1,-1.966035366E-1
6.658604389E0,3.997309506E-1,-4.301051199E-1,-2.088540643E-1
6.663662097E0,4.444720447E-1,-4.492798746E-1,-2.077888101E-1
6.668706420E0,4.817562699E-1,-4.705851376E-1,-2.104519606E-1
6.673764129E0,5.190405846E-1,-5.057388544E-1,-2.232351303E-1
6.678821785E0,5.573900342E-1,-5.371641517E-1,-2.328224927E-1
6.683879441E0,5.856195092E-1,-5.675241351E-1,-2.306919694E-1
6.688937150E0,6.106532216E-1,-5.962862372E-1,-2.232351303E-1
6.693994806E0,6.356869340E-1,-6.399620771E-1,-2.088540643E-1
6.699043920E0,6.564595103E-1,-7.017473578E-1,-1.870161593E-1
6.704101629E0,6.724385023E-1,-7.811094522E-1,-1.619824618E-1
6.709159285E0,6.884174347E-1,-8.753852844E-1,-1.385466754E-1
6.714216993E0,6.980047822E-1,-9.797810912E-1,-1.177740246E-1
6.719274597E0,6.996026635E-1,-1.081513643E0,-1.033929735E-1
6.724332306E0,6.932111382E-1,-1.165669560E0,-9.274033457E-2
6.729413191E0,6.724385023E-1,-1.231715798E0,-9.433823824E-2
6.734470847E0,6.197079420E-1,-1.286044359E0,-1.028603390E-1
6.739528504E0,5.387479067E-1,-1.322795868E0,-1.252308786E-1
6.744586160E0,4.327541292E-1,-1.325991750E0,-1.545256376E-1
6.749643868E0,3.113140762E-1,-1.313741088E0,-1.944730133E-1
6.754701525E0,1.989288032E-1,-1.304686427E0,-2.402793467E-1
6.759760587E0,1.051856056E-1,-1.310545325E0,-2.940751612E-1
6.764818191E0,5.671612918E-2,-1.345699072E0,-3.484035730E-1
6.769875900E0,5.511823297E-2,-1.397364378E0,-4.011341333E-1
6.774933556E0,8.174981922E-2,-1.442105412E0,-4.480057359E-1
6.779991264E0,1.163708791E-1,-1.436246514E0,-4.863552153E-1
6.785048920E0,1.520572156E-1,-1.351557970E0,-5.188457370E-1
6.790108087E0,1.760256439E-1,-1.192301154E0,-5.454773307E-1
6.795165691E0,1.850803792E-1,-9.467579722E-1,-5.667825937E-1
6.800223400E0,1.829498559E-1,-6.357010007E-1,-5.811637044E-1
6.805281056E0,1.728298515E-1,-3.161219358E-1,-5.976752639E-1
6.810338712E0,1.696340591E-1,-2.210921235E-2,-6.253721118E-1
6.815396420E0,1.691014171E-1,1.925413907E-1,-6.397531629E-1
6.820452983E0,1.659056395E-1,2.996003926E-1,-6.077952981E-1
6.825510639E0,1.557856351E-1,3.038614392E-1,-5.209763050E-1
6.830568347E0,1.627098471E-1,2.394129783E-1,-3.840899169E-1
6.835626004E0,1.941351146E-1,1.595182121E-1,-2.285614461E-1
6.840683660E0,2.463330328E-1,9.613503516E-2,-7.250033319E-2
6.845741420E0,3.454025388E-1,8.814556152E-2,8.728919923E-2
6.850776368E0,5.270299911E-1,1.946719140E-1,2.561334372E-1
6.855834025E0,8.024005890E-1,3.954741061E-1,4.191187620E-1
6.860891733E0,1.147013307E0,6.410173178E-1,5.485482812E-1
6.865949337E0,1.491093516E0,8.956152797E-1,6.428241134E-1
6.871007045E0,1.774453640E0,1.107070208E0,6.801083684E-1
6.876064754E0,1.969396710E0,1.274849176E0,6.465525031E-1
6.881122514E0,2.061009407E0,1.370190263E0,5.283083320E-1
6.886180170E0,2.033844948E0,1.362200737E0,3.307018876E-1
6.891237827E0,1.869794726E0,1.234369159E0,8.409340680E-2
6.896295483E0,1.576847196E0,9.637921453E-1,-1.401445717E-1
6.901353191E0,1.187493443E0,5.499373078E-1,-2.711719871E-1
6.906410847E0,7.262342572E-1,2.849080414E-2,-2.978035808E-1
6.911482983E0,2.276909202E-1,-5.398272872E-1,-2.631825209E-1
6.916540639E0,-2.287744880E-1,-1.027717948E0,-2.029951215E-1
6.921598295E0,-5.488861203E-1,-1.339840055E0,-1.534603536E-1
6.926655952E0,-6.937620044E-1,-1.504423380E0,-1.001971811E-1
6.931713660E0,-6.777830124E-1,-1.559817076E0,-4.693401232E-2
6.936771316E0,-5.094714165E-1,-1.515075922E0,-4.856103566E-3
6.941845222E0,-2.085344791E-1,-1.342503309E0,3.136285394E-2
6.946902879E0,1.952003837E-1,-1.018130541E0,3.668917343E-2
6.951960587E0,6.692426801E-1,-5.579367280E-1,-3.148769215E-2
6.957018243E0,1.154470205E0,-3.435974568E-2,-1.390793025E-1
6.962075952E0,1.623186231E0,4.924130440E-1,-2.440077662E-1
6.967133608E0,2.064205170E0,9.563353062E-1,-2.834224999E-1
6.972224806E0,2.467940092E0,1.310535550E0,-2.061908990E-1
6.977282462E0,2.820009470E0,1.537969232E0,-1.124768518E-2
6.982340170E0,3.099641085E0,1.670594573E0,2.300345004E-1
6.987397827E0,3.277539968E0,1.764337778E0,4.382934868E-1
6.992455483E0,3.343053818E0,1.823459983E0,5.975504518E-1
6.997513191E0,3.279138088E0,1.852222085E0,7.173925042E-1
7.002576368E0,3.078336000E0,1.860744119E0,8.106030822E-1
7.007634077E0,2.767278910E0,1.829318881E0,8.846389055E-1
7.012691733E0,2.388045311E0,1.730781913E0,9.357715845E-1
7.017749389E0,1.976853609E0,1.555013537E0,9.586747289E-1
7.022807097E0,1.564064026E0,1.332906008E0,9.299126267E-1
7.027864754E0,1.174177647E0,1.048480749E0,8.233862519E-1
7.032881368E0,8.242385387E-1,6.564636827E-1,6.263124943E-1
7.037939077E0,5.190405846E-1,1.717687547E-1,3.754429817E-1
7.042996785E0,2.788235545E-1,-3.432861567E-1,1.048660427E-1
7.048054389E0,9.772876650E-2,-8.199915886E-1,-1.550582647E-1
7.053112097E0,-4.448390752E-2,-1.203486323E0,-3.643825650E-1
7.058169754E0,-1.387597173E-1,-1.431452751E0,-5.135194659E-1
7.063223920E0,-1.835007966E-1,-1.468737006E0,-6.115236878E-1
7.068281629E0,-1.808376312E-1,-1.352090597E0,-6.765047312E-1
7.073339285E0,-1.259765625E-1,-1.147560120E0,-7.196479440E-1
7.078396941E0,-2.158073895E-2,-8.961579204E-1,-7.393552661E-1
7.083454597E0,1.179687753E-1,-6.165262461E-1,-7.409531474E-1
7.088512358E0,2.782909274E-1,-3.395577371E-1,-7.318984270E-1
7.093608243E0,4.482004344E-1,-8.336186409E-2,-7.137889862E-1
7.098665847E0,6.181100011E-1,1.318213642E-1,-6.892879009E-1
7.103723556E0,7.672469020E-1,2.916108966E-1,-6.525362730E-1
7.108781212E0,8.833606839E-1,4.354214668E-1,-5.806310177E-1
7.113838868E0,9.589943290E-1,5.685793757E-1,-4.820941687E-1
7.118896577E0,9.925501347E-1,6.921499372E-1,-3.739699125E-1
7.123940639E0,9.898869991E-1,7.826973796E-1,-2.583888173E-1
7.128998295E0,9.664512277E-1,8.151879311E-1,-1.460035294E-1
7.134056004E0,9.142533541E-1,8.258405328E-1,-4.746664315E-2
7.139113660E0,8.466090560E-1,8.205142021E-1,5.107023194E-2
7.144171316E0,7.736385465E-1,8.045352697E-1,1.416176260E-1
7.149229025E0,7.059943080E-1,7.752405405E-1,2.145881802E-1
7.154229597E0,6.442090273E-1,7.230426669E-1,2.710471451E-1
7.159287410E0,5.957395434E-1,6.452783346E-1,3.040703237E-1
7.164345222E0,5.462047458E-1,5.408825278E-1,3.221797943E-1
7.169402983E0,4.988004863E-1,4.178446233E-1,3.291040063E-1
7.174460743E0,4.577878118E-1,2.713708878E-1,3.168534636E-1
7.179518504E0,4.274278283E-1,1.169076785E-1,2.960808277E-1
7.184596577E0,4.125141203E-1,-4.288185388E-2,2.630576491E-1
7.189654337E0,4.093183279E-1,-2.101282179E-1,2.204471231E-1
7.194712150E0,4.114488661E-1,-3.693851233E-1,1.698471010E-1
7.199769910E0,4.338193834E-1,-5.179893374E-1,1.197797284E-1
7.204827670E0,4.567225575E-1,-6.500820518E-1,7.610392570E-2
7.209885483E0,4.870825708E-1,-7.571409941E-1,3.828706965E-2
7.214943608E0,5.169100165E-1,-8.327747583E-1,1.165548060E-2
7.220001368E0,5.398132205E-1,-8.828421235E-1,-1.231294870E-2
7.225059181E0,5.579226613E-1,-9.046800137E-1,-2.349821664E-2
7.230116941E0,5.717710853E-1,-8.950926661E-1,-2.935716324E-2
7.235174702E0,5.781626701E-1,-8.668631911E-1,-3.042242862E-2
7.240232462E0,5.845542550E-1,-8.263831139E-1,-2.456347831E-2
7.245314077E0,5.936089754E-1,-7.725873590E-1,-1.657400280E-2
7.250371837E0,6.101205945E-1,-7.155957818E-1,-9.117158130E-3
7.255429597E0,6.335563660E-1,-6.490167975E-1,5.796531681E-3
7.260487410E0,6.585900784E-1,-5.717851520E-1,1.272074319E-2
7.265545118E0,6.862868667E-1,-4.870967269E-1,1.431863941E-2
7.270602931E0,7.161142826E-1,-4.034735560E-1,5.796531681E-3
7.275662827E0,7.379521728E-1,-3.219808936E-1,-1.018242165E-2
7.280720639E0,7.502027154E-1,-2.399556041E-1,-3.042242862E-2
7.285778400E0,7.624532580E-1,-1.419513524E-1,-6.131506711E-2
7.290836212E0,7.805626988E-1,-4.554501176E-2,-9.966455400E-2
7.295893972E0,7.970743179E-1,3.008870035E-2,-1.406771988E-1
7.300951733E0,8.141185641E-1,7.962344587E-2,-1.827551126E-1
7.306009545E0,8.316953778E-1,8.867818862E-2,-2.243003845E-1
7.311067358E0,8.391522765E-1,6.577502191E-2,-2.621172369E-1
7.316125118E0,8.375543356E-1,1.304448396E-2,-2.919446230E-1
7.321182931E0,8.295648694E-1,-6.738290936E-2,-3.100540936E-1
7.326240639E0,8.055964112E-1,-1.648545265E-1,-3.207067549E-1
7.331298400E0,7.752364278E-1,-2.671198249E-1,-3.212393522E-1
7.336327514E0,7.454090118E-1,-3.645914197E-1,-3.079235554E-1
7.341385327E0,7.107880116E-1,-4.450188279E-1,-2.898141146E-1
7.346443087E0,6.868195534E-1,-5.036083460E-1,-2.647804022E-1
7.351500847E0,6.623184681E-1,-5.387619734E-1,-2.349530160E-1
7.356558660E0,6.335563660E-1,-5.446209908E-1,-2.029951215E-1
7.361616420E0,6.026636958E-1,-5.062714815E-1,-1.784940511E-1
7.366725900E0,5.659121275E-1,-4.396924973E-1,-1.598519385E-1
7.371783660E0,5.238341689E-1,-3.550040424E-1,-1.470687836E-1
7.376841472E0,4.780278206E-1,-2.601956129E-1,-1.417424679E-1
7.381899233E0,4.322215021E-1,-1.595281959E-1,-1.444056332E-1
7.386956993E0,3.922741115E-1,-5.832817405E-2,-1.497319490E-1
7.392014806E0,3.565877974E-1,5.778554827E-2,-1.561235189E-1
7.397035587E0,3.145098984E-1,1.792255938E-1,-1.523950994E-1
7.402093400E0,2.820193470E-1,3.097203672E-1,-1.502645761E-1
7.407151212E0,2.564530075E-1,4.423456788E-1,-1.502645761E-1
7.412208920E0,2.335498631E-1,5.797646642E-1,-1.518624723E-1
7.417266733E0,2.191688120E-1,7.059984207E-1,-1.550582647E-1
7.422324493E0,2.175709158E-1,8.141226768E-1,-1.571887881E-1
7.427395847E0,2.271582931E-1,9.126595259E-1,-1.619824618E-1
7.432453608E0,2.410067171E-1,1.002674341E0,-1.715698391E-1
7.437511420E0,2.585835457E-1,1.079373240E0,-1.774287820E-1
7.442569181E0,2.734972537E-1,1.144354343E0,-1.784940511E-1
7.447626941E0,2.905414402E-1,1.175779700E0,-1.731677353E-1
7.452684702E0,2.979982793E-1,1.170985937E0,-1.603845805E-1
7.457719493E0,2.958677709E-1,1.132103920E0,-1.321550906E-1
7.462777254E0,2.777583003E-1,1.060198545E0,-1.007298157E-1
7.467835066E0,2.495288253E-1,9.579331875E-1,-6.770664454E-2
7.472892775E0,2.170382887E-1,8.423521519E-1,-3.255295381E-2
7.477950587E0,1.856130064E-1,7.326300144E-1,9.524953552E-3
7.483008347E0,1.563182622E-1,6.415499449E-1,5.107023194E-2
7.488090379E0,1.291540414E-1,5.744383335E-1,9.048498422E-2
7.493148139E0,1.083813980E-1,5.302299261E-1,1.235081553E-1
7.498205952E0,9.027191997E-2,5.073267817E-1,1.533355266E-1
7.503263712E0,7.216244191E-2,5.009351373E-1,1.735755354E-1
7.508321472E0,5.192244425E-2,4.977393746E-1,1.900871098E-1
7.513379233E0,3.328033164E-2,4.966741204E-1,2.007397413E-1
7.518436264E0,1.783400960E-2,4.961414933E-1,2.060660720E-1
7.523494025E0,5.583479069E-3,4.988046288E-1,2.050008029E-1
7.528551837E0,2.571612131E-4,5.025330782E-1,1.975439638E-1
7.533609597E0,2.387688262E-3,4.998699725E-1,1.820976436E-1
7.538667358E0,1.855056733E-3,4.812277853E-1,1.634555310E-1
7.543725118E0,-1.340734074E-3,4.519330561E-1,1.453460455E-1
7.548783660E0,-1.998284459E-2,4.146488309E-1,1.208449900E-1
7.553841420E0,-6.099548936E-2,3.651140928E-1,9.900709242E-2
7.558899233E0,-1.046713069E-1,3.043940663E-1,8.515866846E-2
7.563956993E0,-1.451513022E-1,2.330214083E-1,8.302814513E-2
7.569014754E0,-1.728481650E-1,1.616487503E-1,8.622393012E-2
7.574072514E0,-1.845660508E-1,9.986345470E-2,8.515866846E-2
7.579131212E0,-1.968165934E-1,5.352449417E-2,8.462603390E-2
7.584188972E0,-2.330355346E-1,1.677290723E-2,8.622393012E-2
7.589246785E0,-3.102671504E-1,-1.678289287E-2,8.835446090E-2
7.594304545E0,-4.263809025E-1,-5.619764328E-2,9.101761132E-2
7.599362358E0,-5.744524598E-1,-1.067976654E-1,9.581129998E-2
7.604420066E0,-7.353072166E-1,-1.797682047E-1,1.016702577E-1
7.609495587E0,-8.743241429E-1,-2.692503631E-1,1.059313044E-1
7.614553295E0,-9.622083306E-1,-3.613956571E-1,1.022028849E-1
7.619611108E0,-1.000025272E0,-4.460840821E-1,9.634393454E-2
7.624668920E0,-1.001623154E0,-5.147935748E-1,8.941972256E-2
7.629726681E0,-1.003221035E0,-5.616651773E-1,9.527867287E-2
7.634784389E0,-1.024526358E0,-5.866988897E-1,1.283018291E-1
7.639817097E0,-1.074593663E0,-6.101346612E-1,1.890218556E-1
7.644874858E0,-1.142237902E0,-6.484841704E-1,2.609271407E-1
7.649932670E0,-1.207751513E0,-7.001494169E-1,3.397566378E-1
7.654990431E0,-1.247698903E0,-7.571409941E-1,4.132598042E-1
7.660048243E0,-1.263145328E0,-8.231874108E-1,4.723819494E-1
7.665105952E0,-1.265808463E0,-8.849726915E-1,5.022093058E-1
7.670162254E0,-1.253557920E0,-9.153326750E-1,5.038072467E-1
7.675220014E0,-1.233317971E0,-9.163979292E-1,4.798387885E-1
7.680277827E0,-1.217871666E0,-8.759179115E-1,4.436198175E-1
7.685335587E0,-1.220002174E0,-8.008168340E-1,3.983461559E-1
7.690393400E0,-1.249829531E0,-6.894967556E-1,3.557355702E-1
7.695451160E0,-1.292440057E0,-5.339683294E-1,3.216471672E-1
7.700601472E0,-1.340376973E0,-3.443514407E-1,2.966134846E-1
7.705659181E0,-1.379791737E0,-1.419513524E-1,2.737103105E-1
7.710716941E0,-1.397368550E0,5.192659795E-2,2.598618865E-1
7.715774702E0,-1.397901058E0,2.170424461E-1,2.524050176E-1
7.720832514E0,-1.377661109E0,3.326235414E-1,2.550681829E-1
7.725890275E0,-1.351562262E0,3.997351527E-1,2.673186958E-1
7.730948087E0,-1.322267413E0,4.290298820E-1,2.864934504E-1
7.735907514E0,-1.287113786E0,4.322257042E-1,3.104619086E-1
7.740965275E0,-1.251960039E0,4.205077887E-1,3.402892649E-1
7.746023087E0,-1.208284259E0,4.002677798E-1,3.690513670E-1
7.751080847E0,-1.157684207E0,3.741688132E-1,3.962156177E-1
7.756138608E0,-1.103355765E0,3.432761729E-1,4.255103469E-1
7.761196368E0,-1.052755833E0,3.049266934E-1,4.510766864E-1
7.766271420E0,-1.004286289E0,2.490003407E-1,4.793061614E-1
7.771329181E0,-9.654041529E-1,1.760298014E-1,5.070030093E-1
7.776386993E0,-9.318483472E-1,8.601503074E-2,5.277756453E-1
7.781444754E0,-9.100104570E-1,-1.891341992E-2,5.480156541E-1
7.786502514E0,-8.924336433E-1,-1.243745163E-1,5.671904087E-1
7.791560275E0,-8.812482953E-1,-2.229113728E-1,5.794409513E-1
7.796618868E0,-8.764547110E-1,-3.123935163E-1,5.874304175E-1
7.801676681E0,-8.759220243E-1,-3.853640556E-1,5.879630446E-1
7.806734441E0,-8.732588887E-1,-4.444862008E-1,5.762451291E-1
7.811792202E0,-8.673999310E-1,-4.881620109E-1,5.592009425E-1
7.816849962E0,-8.460946083E-1,-5.169241428E-1,5.341672301E-1
7.821907722E0,-8.189304471E-1,-5.345009565E-1,5.075356364E-1
7.826963504E0,-7.816461921E-1,-5.520777702E-1,4.793061614E-1
7.832021316E0,-7.353072166E-1,-5.792420506E-1,4.558703899E-1
7.837079077E0,-6.825767159E-1,-6.074715257E-1,4.468156397E-1
7.842136837E0,-6.277155876E-1,-6.404946446E-1,4.468156397E-1
7.847194597E0,-5.669956207E-1,-6.665936708E-1,4.564029872E-1
7.852252410E0,-5.105366707E-1,-6.916273236E-1,4.697187841E-1
7.857297462E0,-4.524798691E-1,-7.219873071E-1,4.872956276E-1
7.862355222E0,-3.917598128E-1,-7.592715621E-1,5.027419329E-1
7.867412983E0,-3.342356086E-1,-8.040126562E-1,5.160577297E-1
7.872470743E0,-2.740482092E-1,-8.428947330E-1,5.240472555E-1
7.877528556E0,-2.133281678E-1,-8.748525977E-1,5.213840604E-1
7.882586316E0,-1.510102600E-1,-8.956252337E-1,5.112640262E-1
7.887655275E0,-9.082287550E-2,-9.030821323E-1,4.952851236E-1
7.892713035E0,-3.010284901E-2,-8.982884884E-1,4.713166952E-1
7.897770795E0,3.168243542E-2,-8.796463013E-1,4.382934868E-1
7.902828608E0,8.760876209E-2,-8.492863178E-1,4.010092914E-1
7.907886368E0,1.398066878E-1,-8.157305717E-1,3.583987653E-1
7.912944129E0,1.861456484E-1,-7.752504945E-1,3.168534636E-1
7.918005483E0,2.298214585E-1,-7.310420871E-1,2.726450264E-1
7.923063243E0,2.692361772E-1,-6.772462726E-1,2.236429155E-1
7.928121056E0,3.027919829E-1,-6.154609323E-1,1.789018512E-1
7.933178816E0,3.342172503E-1,-5.568714738E-1,1.384218484E-1
7.938236577E0,3.581857085E-1,-4.972167313E-1,1.022028849E-1
7.943294337E0,3.837520182E-1,-4.380946159E-1,6.971234828E-2
7.948330691E0,4.018614888E-1,-3.885598481E-1,4.308075458E-2
7.953388504E0,4.114488661E-1,-3.464819491E-1,1.911232434E-2
7.958446316E0,4.087857008E-1,-3.123935163E-1,-5.388735328E-3
7.963504025E0,3.986656964E-1,-2.836313844E-1,-2.669400536E-2
7.968561837E0,3.853498995E-1,-2.639240324E-1,-5.012980103E-2
7.973619597E0,3.560551405E-1,-2.511408627E-1,-8.048980683E-2
7.978699233E0,3.267604113E-1,-2.500755787E-1,-1.103171855E-1
7.983756993E0,2.979982793E-1,-2.575324476E-1,-1.428077221E-1
7.988814806E0,2.692361772E-1,-2.692503631E-1,-1.795593202E-1
7.993872566E0,2.468656600E-1,-2.878924310E-1,-2.189740837E-1
7.998930327E0,2.292888165E-1,-3.081324697E-1,-2.658456564E-1
8.003988087E0,2.127772421E-1,-3.294377327E-1,-3.111193776E-1
8.009046681E0,1.989288032E-1,-3.544714153E-1,-3.590562344E-1
8.014104441E0,1.877435446E-1,-3.747114539E-1,-4.112541378E-1
8.019162254E0,1.733624935E-1,-3.954840600E-1,-4.629194140E-1
8.024220014E0,1.621772200E-1,-4.135935605E-1,-5.129867792E-1
8.029277775E0,1.520572156E-1,-4.279745817E-1,-5.598583817E-1
8.034335535E0,1.430024654E-1,-4.364967346E-1,-6.056647301E-1
8.039390847E0,1.328824610E-1,-4.428882897E-1,-6.477426887E-1
8.044448608E0,1.216971949E-1,-4.508777559E-1,-6.844942570E-1
8.049506368E0,1.115771905E-1,-4.599325061E-1,-7.132563591E-1
8.054564129E0,1.057182476E-1,-4.695198834E-1,-7.420184612E-1
8.059621941E0,9.772876650E-2,-4.839009345E-1,-7.643889785E-1
8.064679650E0,8.707613498E-2,-5.030756593E-1,-7.888900638E-1
8.069743972E0,7.109717280E-2,-5.259788632E-1,-8.085973859E-1
8.074801733E0,5.245507509E-2,-5.542083383E-1,-8.272395730E-1
8.079859545E0,3.168243542E-2,-5.877641439E-1,-8.469468951E-1
8.084917306E0,1.037716400E-2,-6.271788478E-1,-8.677195311E-1
8.089975118E0,-1.092810649E-2,-6.639304757E-1,-8.858290315E-1
8.095032827E0,-3.010284901E-2,-6.921599507E-1,-9.066016674E-1
8.100104702E0,-4.022285342E-2,-7.108020782E-1,-9.263090491E-1
8.105162462E0,-4.714706540E-2,-7.219873071E-1,-9.422879815E-1
8.110220275E0,-5.460390821E-2,-7.273136973E-1,-9.545385242E-1
8.115278087E0,-6.152812392E-2,-7.337052226E-1,-9.641259313E-1
8.120335847E0,-6.845234334E-2,-7.384989262E-1,-9.635932446E-1
8.125393556E0,-8.283339441E-2,-7.438251972E-1,-9.502774477E-1
8.130436212E0,-1.062691957E-1,-7.571409941E-1,-9.263090491E-1
8.135493972E0,-1.329007745E-1,-7.773810625E-1,-8.954164386E-1
8.140551733E0,-1.637934148E-1,-7.997515202E-1,-8.639911413E-1
8.145609493E0,-1.978818476E-1,-8.290463686E-1,-8.261742592E-1
8.150667306E0,-2.346334457E-1,-8.594063520E-1,-7.856942415E-1
8.155725066E0,-2.697871327E-1,-8.871031404E-1,-7.478774190E-1
8.160766264E0,-3.022776842E-1,-8.924295306E-1,-7.127236724E-1
8.165824181E0,-3.299745619E-1,-8.807116151E-1,-6.765047312E-1
8.170882097E0,-3.613997996E-1,-8.519494534E-1,-6.450794339E-1
8.175940066E0,-3.896293044E-1,-8.237199783E-1,-6.141868234E-1
8.180997983E0,-4.237177372E-1,-8.056104779E-1,-5.800983906E-1
8.186055952E0,-4.636650980E-1,-7.992189527E-1,-5.385531187E-1
8.191105900E0,-5.046777129E-1,-8.082736731E-1,-4.895510077E-1
8.196163816E0,-5.483534932E-1,-8.189262748E-1,-4.330920279E-1
8.201221785E0,-5.893661380E-1,-8.167957664E-1,-3.755677938E-1
8.206279702E0,-6.293135285E-1,-7.981536984E-1,-3.196414709E-1
8.211337670E0,-6.655325294E-1,-7.587389350E-1,-2.663783133E-1
8.216395587E0,-7.060124874E-1,-7.145304680E-1,-2.173761725E-1
8.221474545E0,-7.432967424E-1,-6.793767810E-1,-1.705045849E-1
8.226532462E0,-7.800483108E-1,-6.655283570E-1,-1.262961477E-1
8.231590431E0,-8.120061755E-1,-6.724525690E-1,-8.368559927E-2
8.236648347E0,-8.311809301E-1,-6.926925778E-1,-3.628137708E-2
8.241706264E0,-8.492904305E-1,-7.187915444E-1,1.272074319E-2
8.246764233E0,-8.572799563E-1,-7.454231381E-1,6.225549802E-2
8.251820952E0,-8.594104052E-1,-7.624673843E-1,1.112576276E-1
8.256878868E0,-8.567472696E-1,-7.741852403E-1,1.618576348E-1
8.261936837E0,-8.540841341E-1,-7.773810625E-1,2.044681758E-1
8.266994754E0,-8.482251763E-1,-7.752504945E-1,2.476113439E-1
8.272052670E0,-8.402357101E-1,-7.614020705E-1,2.955482006E-1
8.277110639E0,-8.306483626E-1,-7.390315533E-1,3.349629641E-1
8.282184181E0,-8.183978200E-1,-7.086715102E-1,3.621271849E-1
8.287242097E0,-8.061472774E-1,-6.633978486E-1,3.892914057E-1
8.292300066E0,-7.997556925E-1,-6.074715257E-1,4.095313847E-1
8.297357983E0,-8.050820231E-1,-5.483493805E-1,4.201840460E-1
8.302415900E0,-8.077451587E-1,-4.817703962E-1,4.228471816E-1
8.307473868E0,-8.061472774E-1,-3.976145685E-1,4.233798385E-1
8.312529597E0,-7.954946756E-1,-2.953492999E-1,4.180535078E-1
8.317587514E0,-7.773851752E-1,-1.834966242E-1,4.079335034E-1
8.322645431E0,-7.480904460E-1,-7.057870179E-2,3.914219141E-1
8.327703400E0,-7.049472332E-1,2.742554247E-2,3.765082359E-1
8.332761316E0,-6.655325294E-1,9.986345470E-2,3.615945280E-1
8.337819233E0,-6.314440370E-1,1.595182121E-1,3.488113880E-1
8.342896316E0,-5.914966464E-1,2.015961260E-1,3.509418964E-1
8.347954285E0,-5.504840612E-1,2.260971963E-1,3.610619009E-1
8.353012202E0,-5.116019249E-1,2.410108745E-1,3.743776977E-1
8.358070118E0,-4.743177593E-1,2.474024594E-1,3.908892870E-1
8.363128087E0,-4.418272078E-1,2.468698323E-1,4.084661305E-1
8.368186004E0,-4.072061479E-1,2.474024594E-1,4.281735122E-1
8.373200483E0,-3.768461347E-1,2.452719510E-1,4.574682415E-1
8.378258400E0,-3.496819139E-1,2.378150970E-1,4.883608818E-1
8.383316368E0,-3.283766508E-1,2.292929888E-1,5.203188062E-1
8.388374285E0,-3.113324344E-1,2.133140266E-1,5.581356287E-1
8.393432202E0,-2.990819216E-1,1.952045411E-1,5.996809006E-1
8.398490170E0,-2.926903069E-1,1.696382314E-1,6.460199356E-1
8.403650639E0,-2.990819216E-1,1.456698030E-1,6.934241652E-1
8.408708556E0,-3.097345233E-1,1.232992634E-1,7.392304540E-1
8.413766472E0,-3.241156042E-1,1.094508246E-1,7.818410397E-1
8.418824441E0,-3.315724432E-1,1.174403057E-1,8.196578622E-1
8.423882358E0,-3.390292525E-1,1.563224345E-1,8.580073118E-1
8.428940327E0,-3.438229561E-1,2.191729695E-1,8.904978633E-1
8.433897722E0,-3.363661170E-1,3.027961552E-1,9.224557877E-1
8.438955639E0,-3.145282269E-1,4.023982882E-1,9.469568729E-1
8.444013608E0,-2.735155523E-1,5.041309595E-1,9.666641951E-1
8.449071525E0,-2.143934369E-1,5.984067917E-1,9.895673990E-1
8.454129441E0,-1.408902556E-1,6.857584119E-1,1.003948450E0
8.459187358E0,-6.365865469E-2,7.635226250E-1,1.016731620E0
8.464219441E0,1.889927313E-2,8.290363550E-1,1.035373807E0
8.469277410E0,9.879402816E-2,8.902890086E-1,1.049222231E0
8.474335327E0,1.754930168E-1,9.392911196E-1,1.052950621E0
8.479393243E0,2.426046133E-1,9.728469253E-1,1.049754739E0
8.484451160E0,3.059877753E-1,9.952175021E-1,1.044961214E0
8.489509077E0,3.661751747E-1,1.003206968E0,1.031112671E0
8.494598295E0,4.284930825E-1,9.898911715E-1,1.000220060E0
8.499656212E0,4.972025752E-1,9.574006200E-1,9.565442204E-1
8.504714181E0,5.712384582E-1,9.126595259E-1,8.814431429E-1
8.509772097E0,6.495352983E-1,8.434174061E-1,7.946241498E-1
8.514830066E0,7.219732404E-1,7.374237180E-1,7.461546659E-1
8.519887983E0,7.837585211E-1,6.207773089E-1,7.115336061E-1
8.524929806E0,8.380869627E-1,5.142509341E-1,6.694557071E-1
8.529987722E0,8.759038448E-1,4.364867508E-1,6.103335619E-1
8.535045691E0,8.972090483E-1,3.954741061E-1,5.453525186E-1
8.540103608E0,9.089269638E-1,3.928109407E-1,4.675882757E-1
8.545161525E0,9.073290825E-1,4.332909286E-1,3.882261217E-1
8.550219441E0,8.950785995E-1,5.078594089E-1,3.104619086E-1
8.555296993E0,8.711101413E-1,5.882867575E-1,2.295018584E-1
8.560354910E0,8.407500982E-1,6.814973354E-1,1.496071070E-1
8.565412879E0,8.119879961E-1,7.917521000E-1,7.503866404E-2
8.570470795E0,7.890847921E-1,9.036048055E-1,1.112284884E-2
8.575528712E0,7.709753513E-1,1.002674341E0,-4.320558533E-2
8.580586629E0,7.475395799E-1,1.080971122E0,-8.847928047E-2
8.585653139E0,7.209079862E-1,1.121983886E0,-1.284266710E-1
8.590711056E0,6.889500618E-1,1.113461733E0,-1.571887881E-1
8.595769025E0,6.596552730E-1,1.051676512E0,-1.811572164E-1
8.600826941E0,6.351542473E-1,9.360952973E-1,-2.056582868E-1
8.605884858E0,6.213058233E-1,7.821646929E-1,-2.221698612E-1
8.610942775E0,6.159794927E-1,6.010699272E-1,-2.354856580E-1
8.615985483E0,6.122510433E-1,4.183772504E-1,-2.386814505E-1
8.621043400E0,6.138489842E-1,2.543266714E-1,-2.328224927E-1
8.626101368E0,6.165121794E-1,1.163750365E-1,-2.258982807E-1
8.631159285E0,6.213058233E-1,5.055008456E-3,-2.147130072E-1
8.636217202E0,6.335563660E-1,-8.123134077E-2,-1.939403862E-1
8.641275118E0,6.601879597E-1,-1.430166215E-1,-1.768961698E-1
8.646392358E0,7.059943080E-1,-1.898882091E-1,-1.577214152E-1
8.651450275E0,7.672469020E-1,-2.266398072E-1,-1.374814212E-1
8.656508243E0,8.348911405E-1,-2.506082356E-1,-1.241656169E-1
8.661566160E0,8.940132856E-1,-2.324987501E-1,-1.231003478E-1
8.666624077E0,9.243733287E-1,-1.728439927E-1,-1.369487792E-1
8.671681993E0,9.206448793E-1,-7.697028667E-2,-1.774287820E-1
8.676684650E0,8.860238194E-1,3.967607021E-2,-2.365509272E-1
8.681742618E0,8.284996152E-1,1.669750661E-1,-3.073909581E-1
8.686800535E0,7.544637918E-1,2.953393161E-1,-3.846225441E-1
8.691858452E0,6.708406210E-1,4.162467122E-1,-4.650499523E-1
8.696916420E0,5.776300430E-1,5.195773244E-1,-5.481404662E-1
8.701974285E0,4.822888672E-1,5.850909948E-1,-6.317636371E-1
8.707028816E0,3.933393955E-1,5.936130881E-1,-7.196479440E-1
8.712086733E0,3.209014535E-1,5.275667310E-1,-8.117932081E-1
8.717144702E0,2.740298808E-1,3.981372416E-1,-9.055364132E-1
8.722202566E0,2.415393442E-1,2.287603468E-1,-9.790396094E-1
8.727260535E0,2.053203881E-1,4.979607463E-2,-1.030704856E0
8.732318504E0,1.536551118E-1,-9.241660684E-2,-1.045085788E0
8.737365222E0,7.802139223E-2,-1.600608379E-1,-1.032835364E0
8.742423191E0,2.571612131E-4,-1.259724051E-1,-9.918227196E-1
8.747481108E0,-3.755969182E-2,1.570764370E-2,-9.337658882E-1
8.752539025E0,3.985583782E-3,2.479351163E-1,-8.757090569E-1
8.757596993E0,1.323498338E-1,6.095920205E-1,-8.256416321E-1
8.762654910E0,3.358151615E-1,1.069785953E0,-7.595953345E-1
8.767723712E0,5.792279243E-1,1.567263961E0,-6.775699854E-1
8.772781629E0,8.247711658E-1,2.040241003E0,-5.902184248E-1
8.777839597E0,1.045280695E0,2.433855772E0,-5.161826015E-1
8.782897514E0,1.222114444E0,2.704965353E0,-4.730394185E-1
8.787955431E0,1.369653463E0,2.854634762E0,-4.464078248E-1
8.793013400E0,1.484701991E0,2.906300068E0,-4.112541378E-1
8.798074025E0,1.568857670E0,2.887125492E0,-3.675783277E-1
8.803131941E0,1.626914620E0,2.822144508E0,-3.260330558E-1
8.808189910E0,1.668459892E0,2.734792709E0,-2.994014621E-1
8.813247827E0,1.696689367E0,2.638386488E0,-2.882162035E-1
8.818305743E0,1.708407283E0,2.540915012E0,-2.940751612E-1
8.823363660E0,1.702015638E0,2.437051535E0,-3.191088438E-1
8.828417775E0,1.686569333E0,2.324133635E0,-3.718393743E-1
8.833475691E0,1.662068248E0,2.204291582E0,-4.496036172E-1
8.838533660E0,1.624251366E0,2.066872597E0,-5.396183729E-1
8.843591577E0,1.569390416E0,1.925192595E0,-6.306983829E-1
8.848649493E0,1.506007195E0,1.800024033E0,-7.180500627E-1
8.853707462E0,1.436765075E0,1.697758794E0,-8.016732335E-1
8.858744181E0,1.365925074E0,1.625320911E0,-8.826332092E-1
8.863802097E0,1.303074479E0,1.581112385E0,-9.598648548E-1
8.868860066E0,1.246082902E0,1.572057724E0,-1.025378585E0
8.873917983E0,1.195482850E0,1.605613470E0,-1.078641653E0
8.878975952E0,1.149676561E0,1.682845116E0,-1.111664772E0
8.884033868E0,1.105468035E0,1.810144186E0,-1.127111197E0
8.889113608E0,1.072444916E0,1.968868375E0,-1.118589044E0
8.894171525E0,1.060194373E0,2.119070530E0,-1.091957450E0
8.899229441E0,1.077771306E0,2.236249685E0,-1.058401585E0
8.904287410E0,1.111327052E0,2.322535753E0,-1.014725924E0
8.909345327E0,1.151807070E0,2.365679026E0,-9.454838037E-1
8.914403243E0,1.189091325E0,2.349167347E0,-8.629258871E-1
8.919461212E0,1.206135511E0,2.304426432E0,-7.665195465E-1
8.924519181E0,1.190156579E0,2.242640972E0,-6.605257988E-1
8.929577097E0,1.151274443E0,2.171268463E0,-5.481404662E-1
8.934635066E0,1.095348001E0,2.087112665E0,-4.432120621E-1
8.939692931E0,1.039421797E0,2.001358986E0,-3.484035730E-1
8.944750900E0,9.877564907E-1,1.929453611E0,-2.674435675E-1
8.949812670E0,9.462112188E-1,1.880451560E0,-2.072561681E-1
8.954870587E0,9.174490571E-1,1.853287220E0,-1.673087925E-1
8.959928504E0,9.078617096E-1,1.842634678E0,-1.465361565E-1
8.964986472E0,9.121227860E-1,1.845297813E0,-1.460035294E-1
8.970044389E0,9.259712100E-1,1.857548356E0,-1.593193263E-1
8.975102306E0,9.430153966E-1,1.880451560E0,-1.827551126E-1
8.980173556E0,9.510049224E-1,1.911344051E0,-2.072561681E-1
8.985231525E0,9.478091002E-1,1.954487324E0,-2.301593274E-1
8.990289441E0,9.344933033E-1,1.999228477E0,-2.503993511E-1
8.995347358E0,9.121227860E-1,2.030653715E0,-2.679761946E-1
9.000405275E0,8.780343533E-1,2.054622173E0,-2.834224999E-1
9.005463243E0,8.412827253E-1,2.067405224E0,-2.935425341E-1
9.010542150E0,8.151838183E-1,2.047165155E0,-3.073909581E-1
9.015600014E0,7.976069450E-1,2.011478901E0,-3.175109327E-1
9.020657931E0,7.864216566E-1,1.971531510E0,-3.196414709E-1
9.025715900E0,7.864216566E-1,1.924659848E0,-3.175109327E-1
9.030773816E0,7.928132415E-1,1.880984068E0,-3.121846318E-1
9.035831785E0,8.029332757E-1,1.846363068E0,-3.116520047E-1
9.040889702E0,8.093248606E-1,1.810676694E0,-3.121846318E-1
9.045889702E0,8.173143268E-1,1.786175609E0,-3.111193776E-1
9.050947618E0,8.258364797E-1,1.770196795E0,-3.111193776E-1
9.056005587E0,8.290321827E-1,1.759544015E0,-3.132498860E-1
9.061063504E0,8.221079707E-1,1.757946134E0,-3.169783056E-1
9.066121472E0,8.157163858E-1,1.764337778E0,-3.265656829E-1
9.071179389E0,8.050637841E-1,1.764337778E0,-3.345551491E-1
9.076254650E0,7.965416312E-1,1.761674523E0,-3.345551491E-1
9.081312566E0,7.880195379E-1,1.758478880E0,-3.265656829E-1
9.086370535E0,7.784321904E-1,1.745695710E0,-3.217719793E-1
9.091428452E0,7.683122158E-1,1.722792506E0,-3.159130514E-1
9.096486368E0,7.597900629E-1,1.696693540E0,-3.079235554E-1
9.101544285E0,7.502027154E-1,1.656746149E0,-2.924772501E-1
9.106575691E0,7.374196053E-1,1.612537742E0,-2.685088217E-1
9.111633660E0,7.219732404E-1,1.569927216E0,-2.370835394E-1
9.116691577E0,7.054616213E-1,1.515598774E0,-2.056582868E-1
9.121749493E0,6.884174347E-1,1.458074450E0,-1.774287820E-1
9.126807462E0,6.719058752E-1,1.395223975E0,-1.460035294E-1
9.131865379E0,6.612532139E-1,1.336101770E0,-1.193719283E-1
9.136946681E0,6.516658664E-1,1.278045058E0,-9.646876156E-2
9.142004597E0,6.474047899E-1,1.223716497E0,-8.102244139E-2
9.147062566E0,6.532637477E-1,1.183236599E0,-6.823927164E-2
9.152120483E0,6.591227055E-1,1.157137513E0,-6.078243628E-2
9.157178400E0,6.644489765E-1,1.149148107E0,-5.439085513E-2
9.162236368E0,6.740363836E-1,1.159268022E0,-4.906453937E-2
9.167295900E0,6.884174347E-1,1.164061785E0,-4.586874694E-2
9.172353816E0,7.113205791E-1,1.172583818E0,-4.320558533E-2
9.177411785E0,7.416806221E-1,1.190693378E0,-4.160769284E-2
9.182469702E0,7.720406055E-1,1.207204938E0,-3.787926957E-2
9.187527618E0,8.066617250E-1,1.219988108E0,-2.562874183E-2
9.192585587E0,8.354237676E-1,1.229042768E0,-1.391084306E-2
9.197627462E0,8.540658951E-1,1.228510261E0,-1.660313108E-3
9.202685431E0,8.609901667E-1,1.202411294E0,1.378600765E-2
9.207743347E0,8.588595986E-1,1.150213361E0,2.869969606E-2
9.212801316E0,8.428806663E-1,1.078308105E0,3.881970048E-2
9.217859233E0,8.167816997E-1,1.000011206E0,5.426602438E-2
9.222917150E0,7.778995633E-1,9.217143059E-1,6.065760180E-2
9.227976525E0,7.384848595E-1,8.434174061E-1,5.905970931E-2
9.233034493E0,6.996026635E-1,7.880236506E-1,5.586391687E-2
9.238092410E0,6.596552730E-1,7.523373961E-1,4.680917785E-2
9.243150327E0,6.292952895E-1,7.246404886E-1,3.881970048E-2
9.248208243E0,6.090553403E-1,7.166510224E-1,2.816706523E-2
9.253266212E0,5.914784670E-1,7.198468447E-1,1.538390294E-2
9.258336733E0,5.776300430E-1,7.289015651E-1,6.861795206E-3
9.263394650E0,5.701732039E-1,7.294341922E-1,3.133372869E-3
9.268452618E0,5.648468733E-1,7.171837091E-1,7.927059196E-3
9.273510535E0,5.563247204E-1,7.251731157E-1,2.071022056E-2
9.278568504E0,5.360847712E-1,7.565984130E-1,4.574391246E-2
9.283626420E0,5.126489401E-1,7.965458035E-1,8.835446090E-2
9.288682775E0,4.961372912E-1,8.364931941E-1,1.288344562E-1
9.293740691E0,4.806909859E-1,8.705815673E-1,1.512050033E-1
9.298798660E0,4.572551847E-1,8.945500255E-1,1.559986919E-1
9.303856577E0,4.279604554E-1,8.966805935E-1,1.469439417E-1
9.308914545E0,3.880130649E-1,8.860279322E-1,1.320302635E-1
9.313972462E0,3.400762081E-1,8.716468811E-1,1.181818396E-1
9.319028504E0,2.841498852E-1,8.535373807E-1,1.027355194E-1
9.324086420E0,2.271582931E-1,8.428847194E-1,9.368077666E-2
9.329144389E0,1.765582711E-1,8.428847194E-1,8.462603390E-2
9.334202306E0,1.275561601E-1,8.535373807E-1,7.344076782E-2
9.339260275E0,7.961928844E-2,8.705815673E-1,5.320075899E-2
9.344318191E0,2.635611780E-2,8.844300508E-1,3.509128094E-2
9.349379702E0,-4.128811508E-2,8.918868899E-1,8.992321789E-3
9.354437618E0,-1.222481504E-1,8.796363473E-1,-1.870452985E-2
9.359495535E0,-2.127955258E-1,8.412868381E-1,-5.598875135E-2
9.364553504E0,-3.198545277E-1,7.704468369E-1,-1.028603390E-1
9.369611420E0,-4.524798691E-1,6.671162248E-1,-1.678414196E-1
9.374669389E0,-6.026819348E-1,5.318278074E-1,-2.493340820E-1
9.379702202E0,-7.534167171E-1,3.816256523E-1,-3.340225518E-1
9.384760170E0,-8.679324985E-1,2.628487647E-1,-4.240373075E-1
9.389818139E0,-9.307830930E-1,2.324887663E-1,-5.076604486E-1
9.394876056E0,-9.712631106E-1,3.065245748E-1,-5.928815603E-1
9.399933972E0,-1.028254747E0,4.343562126E-1,-6.775699854E-1
9.404991941E0,-1.134248376E0,5.472741723E-1,-7.579973936E-1
9.410056525E0,-1.288179040E0,6.319625974E-1,-8.181847930E-1
9.415114493E0,-1.447435856E0,7.155857682E-1,-8.453490138E-1
9.420172410E0,-1.587518096E0,8.114595413E-1,-8.538711667E-1
9.425230327E0,-1.708958149E0,9.036048055E-1,-8.474795222E-1
9.430288295E0,-1.822941303E0,9.605963826E-1,-8.320332766E-1
9.435346212E0,-1.950772882E0,9.595311284E-1,-8.032711148E-1
9.440417879E0,-2.110029936E0,9.163879156E-1,-7.617258430E-1
9.445475795E0,-2.295385838E0,8.583310843E-1,-6.999405622E-1
9.450533764E0,-2.481806993E0,8.114595413E-1,-6.296331882E-1
9.455591681E0,-2.667162895E0,7.832300067E-1,-5.577278733E-1
9.460649597E0,-2.839202881E0,7.842952609E-1,-4.858225882E-1
9.465707566E0,-2.993133545E0,8.210468292E-1,-4.149825573E-1
9.470783347E0,-3.123628378E0,9.083985090E-1,-3.366856873E-1
9.475841264E0,-3.217371464E0,1.027707934E0,-2.424098700E-1
9.480899181E0,-3.261047363E0,1.098548055E0,-1.364161521E-1
9.485957150E0,-3.241339922E0,1.043686986E0,-3.521611169E-2
9.491015118E0,-3.193403006E0,9.121268988E-1,6.971234828E-2
9.496073035E0,-3.150792360E0,7.688488960E-1,1.746407896E-1
9.501111212E0,-3.128954649E0,6.330278516E-1,2.753082216E-1
9.506169129E0,-3.128954649E0,4.934783578E-1,3.679861426E-1
9.511227097E0,-3.155586243E0,3.363519609E-1,4.633271992E-1
9.516285014E0,-3.200859785E0,2.015961260E-1,5.474830270E-1
9.521342983E0,-3.259981871E0,1.115813553E-1,5.906261802E-1
9.526400900E0,-3.317506313E0,8.601503074E-2,5.767777562E-1
9.531449077E0,-3.335083008E0,7.003607601E-2,5.032745600E-1
9.536506993E0,-3.308451414E0,8.335187286E-2,3.930198252E-1
9.541564910E0,-3.236546040E0,1.675077081E-1,2.657208443E-1
9.546622879E0,-3.131085157E0,3.379498720E-1,1.575965881E-1
9.551680847E0,-3.006449223E0,5.707099438E-1,9.155024588E-2
9.556738764E0,-2.863171339E0,7.161183953E-1,6.491865963E-2
9.561808764E0,-2.715632200E0,6.809647083E-1,5.266812816E-2
9.566866681E0,-2.594724894E0,5.307625532E-1,3.775443882E-2
9.571924650E0,-2.519623756E0,3.667119741E-1,4.254812375E-2
9.576982566E0,-2.483937502E0,2.394129783E-1,7.663656026E-2
9.582040483E0,-2.485535383E0,1.531266421E-1,1.469439417E-1
9.587098452E0,-2.507905960E0,9.187398106E-2,2.321650237E-1
9.592156889E0,-2.535070181E0,2.209922299E-2,3.211145103E-1
9.597214806E0,-2.544125080E0,-9.561239928E-2,3.834324479E-1
9.602272722E0,-2.530809164E0,-2.399556041E-1,4.127271771E-1
9.607330691E0,-2.493524790E0,-3.832335472E-1,4.159229994E-1
9.612388660E0,-2.435467958E0,-5.121304393E-1,4.063356221E-1
9.617446577E0,-2.360899687E0,-6.159936190E-1,3.935524523E-1
9.622537150E0,-2.258634329E0,-6.863009930E-1,3.850303590E-1
9.627595066E0,-2.129204750E0,-7.230525613E-1,3.802366555E-1
9.632652983E0,-1.985926628E0,-7.576736808E-1,3.850303590E-1
9.637710952E0,-1.846377015E0,-7.859031558E-1,3.962156177E-1
9.642768868E0,-1.713751793E0,-8.072084188E-1,4.153903425E-1
9.647826837E0,-1.598703384E0,-8.274484277E-1,4.473482370E-1
9.652820639E0,-1.504427433E0,-8.498189449E-1,4.835672081E-1
9.657878608E0,-1.431989551E0,-8.764505386E-1,5.144598484E-1
9.662936525E0,-1.373400092E0,-9.062778950E-1,5.368304253E-1
9.667994441E0,-1.319604397E0,-9.424968958E-1,5.464177132E-1
9.673052410E0,-1.259949565E0,-9.627369046E-1,5.421566963E-1
9.678110327E0,-1.190174818E0,-9.632694721E-1,5.352324843E-1
9.683239545E0,-1.108149529E0,-9.478232265E-1,5.171229839E-1
9.688297514E0,-1.008014679E0,-9.073431492E-1,4.894261658E-1
9.693355431E0,-8.998904824E-1,-8.450253010E-1,4.580008984E-1
9.698413347E0,-7.891030312E-1,-7.661957741E-1,4.303040206E-1
9.703471316E0,-6.612714529E-1,-6.756483912E-1,4.111292958E-1
9.708529233E0,-5.259829164E-1,-5.765788555E-1,3.983461559E-1
9.713570691E0,-3.880313933E-1,-4.759114683E-1,3.940850794E-1
9.718628660E0,-2.410250306E-1,-3.720482588E-1,3.967482448E-1
9.723686577E0,-9.614919126E-2,-2.665871680E-1,3.999440074E-1
9.728744493E0,4.393296689E-2,-1.648545265E-1,4.047377110E-1
9.733802462E0,1.786887944E-1,-5.459975451E-2,4.004766643E-1
9.738860379E0,3.043898940E-1,5.938344449E-2,3.967482448E-1
9.743891108E0,4.114488661E-1,1.802908629E-1,3.866282403E-1
9.748949025E0,5.057247281E-1,2.953393161E-1,3.786387444E-1
9.754006993E0,5.914784670E-1,3.938761950E-1,3.679861426E-1
9.759064910E0,6.660469174E-1,4.721730351E-1,3.445503414E-1
9.764122879E0,7.225058675E-1,5.323604345E-1,3.072660863E-1
9.769180795E0,7.640511394E-1,5.818951726E-1,2.614597678E-1
9.774194910E0,7.970743179E-1,6.250383854E-1,2.209797651E-1
9.779252827E0,8.242385387E-1,6.633878350E-1,1.804997325E-1
9.784310795E0,8.402174711E-1,6.964110732E-1,1.517376304E-1
9.789368712E0,8.572616577E-1,7.203794122E-1,1.314976215E-1
9.794426681E0,8.743059635E-1,7.336952090E-1,1.192471012E-1
9.799484597E0,8.892196417E-1,7.454131246E-1,1.117902622E-1
9.804558400E0,9.073290825E-1,7.672510743E-1,1.043334082E-1
9.809616316E0,9.270364642E-1,7.853605151E-1,9.900709242E-2
9.814674285E0,9.510049224E-1,8.098616004E-1,9.527867287E-2
9.819732202E0,9.733753800E-1,8.524721265E-1,8.728919923E-2
9.824790170E0,9.930828214E-1,9.211816192E-1,7.663656026E-2
9.829848087E0,1.011724830E0,1.006402731E0,6.598392129E-2
9.834938972E0,1.027703881E0,1.100678563E0,4.521128163E-2
9.839996889E0,1.038356423E0,1.199215412E0,1.644916646E-2
9.845054858E0,1.045813441E0,1.290295482E0,-8.051894605E-3
9.850112775E0,1.051139712E0,1.349417567E0,-1.444347575E-2
9.855170743E0,1.061792254E0,1.379244924E0,-1.337821130E-2
9.860228660E0,1.073510170E0,1.364863992E0,-6.241770461E-5
9.865276472E0,1.088423848E0,1.304143906E0,1.644916646E-2
9.870334389E0,1.106533408E0,1.211998582E0,3.349338472E-2
9.875392358E0,1.128903866E0,1.088960648E0,4.521128163E-2
9.880450275E0,1.150209188E0,9.456826448E-1,5.479865521E-2
9.885508243E0,1.167786002E0,7.922847867E-1,5.692918226E-2
9.890566108E0,1.186960697E0,6.399520636E-1,5.000497028E-2
9.895611264E0,1.202407122E0,4.918804169E-1,3.402601555E-2
9.900669181E0,1.213592291E0,3.555267155E-1,1.005758531E-2
9.905727150E0,1.214657664E0,2.303582430E-1,-2.083505504E-2
9.910785066E0,1.207200766E0,1.211687252E-1,-5.758664384E-2
9.915843035E0,1.199743867E0,2.422975376E-2,-9.913191944E-2
9.920900952E0,1.181101799E0,-6.045869738E-2,-1.422750950E-1
9.925957670E0,1.150209188E0,-1.467450410E-1,-1.875488013E-1
9.931015587E0,1.103870153E0,-2.303682268E-1,-2.269635499E-1
9.936073556E0,1.037291288E0,-3.001430035E-1,-2.599866986E-1
9.941131472E0,9.520701766E-1,-3.539387882E-1,-2.812919915E-1
9.946189441E0,8.402174711E-1,-3.805703819E-1,-2.855530381E-1
9.951247358E0,7.065268755E-1,-3.677872121E-1,-2.701067030E-1
9.956337566E0,5.573900342E-1,-3.310356438E-1,-2.370835394E-1
9.961395483E0,4.109162390E-1,-2.862945497E-1,-2.029951215E-1
9.966453400E0,2.862803936E-1,-2.143892646E-1,-1.731677353E-1
9.971511368E0,1.962656528E-1,-1.009387150E-1,-1.523950994E-1
9.976569285E0,1.296866834E-1,5.512239039E-2,-1.422750950E-1
9.981627254E0,7.908665389E-2,2.420761287E-1,-1.449382603E-1
9.986666056E0,4.126980901E-2,4.316930473E-1,-1.406771988E-1
9.991723972E0,4.518215545E-3,5.914825797E-1,-1.262961477E-1
9.996781941E0,-2.957021445E-2,6.958783865E-1,-9.274033457E-2
1.000183986E1,-5.087548494E-2,7.273036838E-1,-4.533611611E-2
1.000689783E1,-5.620180070E-2,6.639205217E-1,2.068109345E-3
1.001195574E1,-4.821232706E-2,4.940109849E-1,5.266812816E-2
1.001701366E1,-2.690705657E-2,2.431414127E-1,1.075292006E-1
1.002207158E1,9.311900474E-3,-3.968606144E-2,1.549334228E-1
1.002712955E1,5.671612918E-2,-2.862945497E-1,1.959460527E-1
1.003218746E1,1.232950911E-1,-4.599325061E-1,2.465460747E-1
1.003724543E1,2.186361849E-1,-5.472841263E-1,3.163208365E-1
1.004230335E1,3.315541148E-1,-5.531430840E-1,3.951503336E-1
1.004736100E1,4.668425620E-1,-4.972167313E-1,4.510766864E-1
1.005241892E1,6.213058233E-1,-4.135935605E-1,4.856977463E-1
1.005747689E1,7.864216566E-1,-3.294377327E-1,4.894261658E-1
1.006253481E1,9.483417273E-1,-2.591303289E-1,4.665229917E-1
1.006759278E1,1.107598662E0,-1.904208362E-1,4.196514189E-1
1.007265069E1,1.260463953E0,-1.041345075E-1,3.525398076E-1
1.007770746E1,1.412796617E0,2.955606952E-2,2.731776536E-1
1.008276538E1,1.553943992E0,2.197056115E-1,1.682492197E-1
1.008782335E1,1.659937739E0,4.514004290E-1,5.796531681E-3
1.009288126E1,1.693493605E0,7.033352256E-1,-2.120498568E-1
1.009793923E1,1.626914620E0,9.344974160E-1,-4.559952021E-1
1.010299715E1,1.445819736E0,1.108135462E0,-6.488078833E-1
1.010804163E1,1.141154408E0,1.176844954E0,-7.361595035E-1
1.011309960E1,7.235711217E-1,1.052741647E0,-7.329637408E-1
1.011815751E1,2.724319696E-1,7.667184472E-1,-7.010057569E-1
1.012321543E1,-6.578918546E-2,4.860214889E-1,-6.839615703E-1
1.012827340E1,-2.181218565E-1,3.145140409E-1,-6.663847566E-1
1.013333132E1,-1.888270974E-1,2.729687989E-1,-6.189805269E-1
1.013840382E1,-1.340734074E-3,3.539288044E-1,-5.465425849E-1
1.014346173E1,3.187709451E-1,5.424804688E-1,-4.613215327E-1
1.014851965E1,7.262342572E-1,8.306342363E-1,-3.984709680E-1
1.015357762E1,1.153404951E0,1.168855429E0,-3.585235775E-1
1.015863559E1,1.529443026E0,1.480977654E0,-2.914119959E-1
1.016369350E1,1.825053573E0,1.719596624E0,-1.997993290E-1
1.016875199E1,2.034377575E0,1.862874627E0,-1.081866622E-1
1.017380986E1,2.194699764E0,1.930518866E0,-2.136768959E-2
1.017886778E1,2.324129343E0,1.950226307E0,5.746181309E-2
1.018392564E1,2.427459955E0,1.941171527E0,1.208449900E-1
1.018898350E1,2.492973566E0,1.908148289E0,1.671839654E-1
1.019404137E1,2.505224228E0,1.849026203E0,2.071313262E-1
1.019907142E1,2.458352566E0,1.772859812E0,2.438829243E-1
1.020412928E1,2.364609480E0,1.682845116E0,2.651881874E-1
1.020918720E1,2.230918646E0,1.586438656E0,2.683839798E-1
1.021424507E1,2.065270185E0,1.501750350E0,2.486765981E-1
1.021930293E1,1.879914761E0,1.426649332E0,2.092618495E-1
1.022436085E1,1.692428231E0,1.354743958E0,1.645208001E-1
1.022944309E1,1.512398720E0,1.310002923E0,1.187144667E-1
1.023450095E1,1.339293480E0,1.299350142E0,6.385339051E-2
1.023955882E1,1.182167053E0,1.314263940E0,-2.725576516E-3
1.024461673E1,1.052737594E0,1.338232398E0,-8.368559927E-2
