"Time (s)","Gyroscope x (rad/s)","Gyroscope y (rad/s)","Gyroscope z (rad/s)"
6.321001000E-2,1.467657685E0,2.211748362E0,3.706492782E-1
6.826146900E-2,1.444221973E0,2.216009378E0,3.509418964E-1
7.335047900E-2,1.389893413E0,2.099363089E0,4.287061393E-1
7.838303100E-2,1.300943971E0,1.866603017E0,4.974156320E-1
8.345313500E-2,1.208266020E0,1.593363047E0,5.767777562E-1
8.850990600E-2,1.101207018E0,1.337167144E0,6.753146648E-1
9.356558300E-2,9.802996516E-1,1.092156529E0,7.647967935E-1
9.860574000E-2,8.567290902E-1,8.652552962E-1,8.372346759E-1
1.036650630E-1,7.198426723E-1,6.676489115E-1,8.755841851E-1
1.087450100E-1,5.675100088E-1,4.966741204E-1,8.809104562E-1
1.138003230E-1,4.098509848E-1,3.470045924E-1,8.590725660E-1
1.188441770E-1,2.564530075E-1,2.175750881E-1,8.116683364E-1
1.239030830E-1,1.147729754E-1,1.201034561E-1,7.466873527E-1
1.289828230E-1,9.844533168E-3,7.110133767E-2,6.689230204E-1
1.340209480E-1,-6.685444713E-2,7.216660678E-2,5.821040869E-1
1.390963130E-1,-1.249113157E-1,9.347187728E-2,4.835672081E-1
1.441287600E-1,-1.781744659E-1,1.067876741E-1,3.679861426E-1
1.492237600E-1,-2.420902848E-1,1.089181975E-1,2.353608161E-1
1.542633960E-1,-3.379640281E-1,1.174403057E-1,9.474603832E-2
1.593165210E-1,-4.972209334E-1,1.451371610E-1,-3.574874252E-2
1.643694900E-1,-7.283830047E-1,1.840192825E-1,-1.539929956E-1
1.694470940E-1,-1.025058985E0,1.909434944E-1,-2.615846097E-1
1.744824580E-1,-1.367008567E0,1.286255717E-1,-3.686436117E-1
1.796191770E-1,-1.729198098E0,-3.999731503E-3,-4.847573042E-1
1.846216250E-1,-2.089257240E0,-2.186503261E-1,-6.104584336E-1
1.897275630E-1,-2.434402704E0,-5.281093717E-1,-7.425510883E-1
1.947456880E-1,-2.744927168E0,-8.791137338E-1,-8.847637773E-1
1.998119900E-1,-3.063973665E0,-1.221595883E0,-1.008334279E0
2.048642290E-1,-3.414445162E0,-1.522000194E0,-1.079706907E0
2.099476150E-1,-3.735622168E0,-1.672202349E0,-1.096751094E0
2.149716250E-1,-3.923640966E0,-1.634918094E0,-1.106871247E0
2.200590730E-1,-3.943348646E0,-1.455953836E0,-1.150547028E0
2.250976670E-1,-3.823506355E0,-1.197094798E0,-1.222984910E0
2.301478230E-1,-3.640280962E0,-9.590084553E-1,-1.275182724E0
2.351727710E-1,-3.491144180E0,-8.317095041E-1,-1.275182724E0
2.402623540E-1,-3.397933483E0,-9.137347341E-1,-1.208603859E0
2.453217810E-1,-3.359584093E0,-1.182181001E0,-1.090359569E0
2.504025100E-1,-3.363312483E0,-1.489509702E0,-9.518753290E-1
2.554232400E-1,-3.382487297E0,-1.683387637E0,-8.160542250E-1
2.605116770E-1,-3.392607450E0,-1.697768688E0,-6.781026721E-1
2.655393330E-1,-3.392074585E0,-1.596568584E0,-5.183131099E-1
2.705914690E-1,-3.380356789E0,-1.477791786E0,-3.302941024E-1
2.756526670E-1,-3.391009569E0,-1.398429632E0,-1.348182559E-1
2.807269900E-1,-3.438946247E0,-1.388842225E0,2.284074761E-2
2.857713650E-1,-3.525765419E0,-1.476726413E0,1.165839434E-1
2.908138650E-1,-3.629096031E0,-1.724932909E0,1.256386787E-1
2.958860000E-1,-3.753198862E0,-2.030130863E0,5.053760111E-2
3.009474580E-1,-3.953468561E0,-2.109493017E0,-6.717400998E-2
3.059989690E-1,-4.191022396E0,-1.980063438E0,-1.502645761E-1
3.110863650E-1,-4.363595009E0,-1.769673944E0,-1.763635278E-1
3.161251150E-1,-4.442424297E0,-1.455953836E0,-1.646456271E-1
3.211528750E-1,-4.412064552E0,-1.041033745E0,-1.491993070E-1
3.262376670E-1,-4.284232616E0,-6.096020341E-1,-1.582540423E-1
3.313803230E-1,-4.108464718E0,-2.063997984E-1,-2.104519606E-1
3.363502190E-1,-3.918314934E0,1.696382314E-1,-3.180435598E-1
3.413925100E-1,-3.739883184E0,4.258340895E-1,-4.666478336E-1
3.464671460E-1,-3.579028606E0,4.428783059E-1,-6.306983829E-1
3.515628750E-1,-3.429891586E0,1.765624434E-1,-7.878248096E-1
3.565819900E-1,-3.320169449E0,-2.468798161E-1,-9.151237607E-1
3.616226670E-1,-3.287146091E0,-7.065410614E-1,-1.013660550E0
3.666987080E-1,-3.311647177E0,-1.116134763E0,-1.085565925E0
3.718791250E-1,-3.361714602E0,-1.426126480E0,-1.107403755E0
3.768124060E-1,-3.414445162E0,-1.645038128E0,-1.079174280E0
3.818636040E-1,-3.442142010E0,-1.761684418E0,-1.003540635E0
3.868527710E-1,-3.407521009E0,-1.799501419E0,-8.751763701E-1
3.921175630E-1,-3.296200991E0,-1.765945435E0,-7.121911049E-1
3.971347500E-1,-3.115638971E0,-1.710551739E0,-5.486731529E-1
4.021181880E-1,-2.889270306E0,-1.656223416E0,-4.107215106E-1
4.071366250E-1,-2.665032387E0,-1.583252788E0,-3.015320003E-1
4.123245940E-1,-2.467958450E0,-1.499097109E0,-2.248330265E-1
4.172677710E-1,-2.299646854E0,-1.423995852E0,-1.880814284E-1
4.223434480E-1,-2.155836344E0,-1.401092768E0,-1.859509051E-1
4.273994900E-1,-2.035461664E0,-1.436779022E0,-1.896793246E-1
4.324515730E-1,-1.925206661E0,-1.517206430E0,-1.939403862E-1
4.374815210E-1,-1.824006557E0,-1.625863433E0,-1.976687908E-1
4.426150100E-1,-1.720675945E0,-1.741977096E0,-1.960709095E-1
4.476123020E-1,-1.610953808E0,-1.863417149E0,-1.827551126E-1
4.526902190E-1,-1.484720230E0,-1.976335049E0,-1.497319490E-1
4.577243330E-1,-1.339844346E0,-2.086057186E0,-1.039256081E-1
4.628139170E-1,-1.178456903E0,-2.187789917E0,-5.012980103E-2
4.678397500E-1,-1.008014679E0,-2.264488935E0,3.666004632E-3
4.729166770E-1,-8.237240911E-1,-2.319882393E0,4.840707406E-2
4.779437600E-1,-6.282482743E-1,-2.377939463E0,9.048498422E-2
4.830592810E-1,-4.231850803E-1,-2.433865547E0,1.117902622E-1
4.880964170E-1,-2.037408054E-1,-2.456768990E0,1.075292006E-1
4.931541250E-1,3.487822413E-2,-2.445583582E0,7.929971814E-2
4.981873540E-1,2.809540629E-1,-2.400842667E0,2.390600927E-2
5.032822500E-1,5.446068645E-1,-2.314556360E0,-4.693401232E-2
5.083127190E-1,8.306301236E-1,-2.185659409E0,-1.321550906E-1
5.134356350E-1,1.128371239E0,-2.025337219E0,-2.253656536E-1
5.184304270E-1,1.436232448E0,-1.839448690E0,-3.270983100E-1
5.234823540E-1,1.740365148E0,-1.633320212E0,-4.267004430E-1
5.285457920E-1,2.020529270E0,-1.420267463E0,-5.268352628E-1
5.336219900E-1,2.265539885E0,-1.208812594E0,-6.360247135E-1
5.386610520E-1,2.464211464E0,-9.989558458E-1,-7.633237243E-1
5.437288130E-1,2.598967314E0,-7.890989780E-1,-9.050037861E-1
5.487858960E-1,2.635718822E0,-5.621978045E-1,-1.037629008E0
5.538395420E-1,2.520670414E0,-3.246440291E-1,-1.124980569E0
5.588949580E-1,2.223461866E0,-9.135134518E-2,-1.144688010E0
5.639322500E-1,1.800552487E0,8.175397664E-2,-1.092490077E0
5.689942810E-1,1.360598683E0,9.613503516E-2,-9.572017193E-1
5.740466770E-1,9.973438382E-1,-1.174502969E-1,-6.951468587E-1
5.791405830E-1,8.183795810E-1,-5.291746259E-1,-2.807593644E-1
5.841721460E-1,8.833606839E-1,-9.627369046E-1,2.065987140E-1
5.892674060E-1,1.054335475E0,-1.212008476E0,5.783756971E-1
5.942693850E-1,1.096946001E0,-1.239172697E0,7.466873527E-1
5.993576150E-1,9.105248451E-1,-1.008543253E0,7.621335983E-1
6.044123540E-1,5.296931267E-1,-6.484841704E-1,6.635967493E-1
6.094432400E-1,7.216244191E-2,-3.949514329E-1,5.000787973E-1
6.145300630E-1,-3.699219227E-1,-3.550040424E-1,3.296366334E-1
6.196463130E-1,-7.630041242E-1,-4.226482809E-1,1.533355266E-1
6.246352710E-1,-1.109747410E0,-4.716504216E-1,-4.214032367E-2
6.297472500E-1,-1.425598025E0,-4.828356802E-1,-2.253656536E-1
6.347779270E-1,-1.747840166E0,-4.982819855E-1,-3.393488526E-1
6.398630310E-1,-2.109497547E0,-5.302398801E-1,-3.377509713E-1
6.448582400E-1,-2.481274366E0,-5.334357023E-1,-2.243003845E-1
6.499566770E-1,-2.881813526E0,-4.865640998E-1,-1.124768518E-2
6.549889170E-1,-3.305255651E0,-3.869619668E-1,2.710471451E-1
6.600552710E-1,-3.604594707E0,-1.739092618E-1,5.703861713E-1
6.651021980E-1,-3.536417961E0,3.081224859E-1,7.797104716E-1
6.701996980E-1,-2.880215645E0,9.520742893E-1,7.616009712E-1
6.752183440E-1,-1.643977046E0,1.405344009E0,4.595988095E-1
6.803014690E-1,-1.749786884E-1,1.668464065E0,-4.959717020E-2
6.853253750E-1,1.024508119E0,1.951291442E0,-6.104584336E-1
6.904087600E-1,1.630643010E0,2.214944124E0,-1.093022704E0
6.954504270E-1,1.756876707E0,2.391777992E0,-1.460538626E0
7.005154270E-1,1.858076811E0,2.315611601E0,-1.679982901E0
7.055651150E-1,2.158480644E0,1.837308288E0,-1.785443902E0
7.106345420E-1,2.483918667E0,1.172583818E0,-1.796629310E0
7.156814170E-1,2.620805264E0,5.648509860E-1,-1.702353477E0
7.207409480E-1,2.467940092E0,4.660028219E-2,-1.446157575E0
7.257993850E-1,2.052487135E0,-3.619282842E-1,-1.035498500E0
7.308523020E-1,1.566727161E0,-4.988146126E-1,-5.758373141E-1
7.359029270E-1,1.239691257E0,-1.776376814E-1,-2.008645982E-1
7.409705830E-1,1.221581817E0,5.888194442E-1,3.881970048E-2
7.460283440E-1,1.575781941E0,1.710541964E0,1.341607869E-1
7.511081350E-1,2.249560833E0,3.026142359E0,1.128555238E-1
7.561441250E-1,3.051704407E0,4.265575886E0,1.218811236E-2
7.611906350E-1,3.762235165E0,5.205138206E0,-1.710372120E-1
7.662630830E-1,4.270898342E0,5.748955727E0,-3.723720312E-1
7.713261560E-1,4.552127838E0,5.905549049E0,-5.076604486E-1
7.763805830E-1,4.608054638E0,5.696224689E0,-5.481404662E-1
7.814177710E-1,4.466907024E0,5.181169987E0,-5.065952539E-1
7.864963650E-1,4.206449986E0,4.494074821E0,-4.027320445E-1
7.916877190E-1,3.902849913E0,3.760641575E0,-2.562582791E-1
7.966080310E-1,3.624815941E0,3.068220377E0,-9.753402323E-2
8.016541250E-1,3.420818090E0,2.497771502E0,-3.258208279E-3
8.067196980E-1,3.300443411E0,2.113744259E0,3.828706965E-2
8.117943850E-1,3.255169630E0,1.931051493E0,4.254812375E-2
8.168420420E-1,3.264757156E0,1.848493576E0,2.284074761E-2
8.220065210E-1,3.348380089E0,1.735043049E0,-1.657400280E-2
8.269635520E-1,3.453308582E0,1.532110333E0,-1.129803509E-1
8.320026670E-1,3.506571770E0,1.259402871E0,-2.754330337E-1
8.370732920E-1,3.474081278E0,1.056470156E0,-4.181783497E-1
8.421407920E-1,3.373413801E0,9.861627221E-1,-4.639846683E-1
8.471762080E-1,3.237060070E0,1.015990138E0,-4.149825573E-1
8.522632400E-1,3.081531763E0,1.101211190E0,-3.057930470E-1
8.573070940E-1,2.923340082E0,1.224781871E0,-1.763635278E-1
8.623772500E-1,2.778464079E0,1.373918653E0,-5.545611680E-2
8.674135000E-1,2.637849331E0,1.539567113E0,4.787444323E-2
8.724933960E-1,2.519072533E0,1.688171387E0,1.421502531E-1
8.775392810E-1,2.422133684E0,1.802687287E0,2.332302779E-1
8.826218330E-1,2.333184004E0,1.884179950E0,3.195166588E-1
8.876510520E-1,2.257017612E0,1.936377764E0,4.042050838E-1
8.927124580E-1,2.205884933E0,1.960878849E0,5.006114244E-1
8.977691770E-1,2.182449341E0,2.003489256E0,6.161925197E-1
9.028353750E-1,2.179786205E0,2.065807343E0,7.328388691E-1
9.078851150E-1,2.176590443E0,2.156887293E0,8.212557435E-1
9.129806350E-1,2.170731544E0,2.270870447E0,8.659968376E-1
9.179990210E-1,2.179253340E0,2.386984348E0,8.633336425E-1
9.230671460E-1,2.211743832E0,2.499902248E0,8.185926080E-1
9.281150630E-1,2.274594545E0,2.582460165E0,7.397630811E-1
9.331782920E-1,2.363543987E0,2.642114878E0,6.327041388E-1
9.382297500E-1,2.457287073E0,2.649571657E0,5.107313991E-1
9.433318850E-1,2.542508364E0,2.597906351E0,3.871608675E-1
9.483467290E-1,2.592042923E0,2.527066469E0,2.678513527E-1
9.533835000E-1,2.587781906E0,2.433323383E0,1.677165776E-1
9.584596460E-1,2.507354498E0,2.285251617E0,9.261551499E-2
9.635357920E-1,2.350228310E0,2.071133614E0,6.491865963E-2
9.685796980E-1,2.127588272E0,1.795230508E0,7.503866404E-2
9.736630310E-1,1.879914761E0,1.467129230E0,1.032681465E-1
9.786908960E-1,1.661535621E0,1.121451259E0,1.544007808E-1
9.837791250E-1,1.511866093E0,8.274384737E-1,2.177839577E-1
9.888191770E-1,1.434101820E0,6.378214955E-1,2.832976878E-1
9.938433960E-1,1.415459752E0,5.776341558E-1,3.301692605E-1
9.989026670E-1,1.431438804E0,6.649857759E-1,3.583987653E-1
1.003962042E0,1.475647092E0,8.892237544E-1,3.685187399E-1
1.009035844E0,1.537965059E0,1.219455481E0,3.749103248E-1
1.014082250E0,1.581640840E0,1.600287199E0,3.738450706E-1
1.019167823E0,1.592826247E0,1.929986238E0,3.759756088E-1
1.024204021E0,1.571520925E0,2.118537903E0,3.956829607E-1
1.029251260E0,1.504941940E0,2.136647224E0,4.212493002E-1
1.034320271E0,1.400013447E0,2.000826359E0,4.494787753E-1
1.039364854E0,1.278573394E0,1.750489354E0,4.899587929E-1
1.044439438E0,1.149676561E0,1.488967180E0,5.517441034E-1
1.049512458E0,1.016518593E0,1.272718668E0,6.358999014E-1
1.054574073E0,8.892196417E-1,1.112929225E0,7.285778522E-1
1.059671781E0,7.773669362E-1,9.941522479E-1,8.106030822E-1
1.064680792E0,6.681774855E-1,8.961479068E-1,8.585399985E-1
1.069788344E0,5.392805338E-1,8.066658378E-1,8.729210496E-1
1.074826260E0,3.880130649E-1,7.193142176E-1,8.628010154E-1
1.079868813E0,2.234298736E-1,6.335604787E-1,8.228536248E-1
1.084886156E0,6.523822993E-2,5.515351892E-1,7.584052086E-1
1.089978135E0,-7.058287412E-2,4.833583236E-1,6.769125462E-1
1.094999021E0,-1.776418537E-1,4.359541237E-1,5.884956717E-1
1.100131729E0,-2.681892812E-1,4.119856656E-1,4.974156320E-1
1.105141521E0,-3.629977107E-1,3.949414492E-1,3.908892870E-1
1.110229854E0,-4.727198482E-1,3.448740542E-1,2.614597678E-1
1.115236781E0,-6.117366552E-1,2.511308789E-1,1.016702577E-1
1.120317094E0,-7.965599298E-1,1.328866333E-1,-7.303296030E-2
1.125374750E0,-1.042635679E0,2.156659216E-2,-2.349530160E-1
1.130444542E0,-1.357421160E0,-5.939343572E-2,-3.830246329E-1
1.135481781E0,-1.737720132E0,-9.827554971E-2,-5.337594748E-1
1.140554125E0,-2.162228107E0,-1.222439855E-1,-6.850268245E-1
1.145598760E0,-2.568093538E0,-1.813661009E-1,-8.400226831E-1
1.150647823E0,-2.938272476E0,-3.448840380E-1,-9.838333130E-1
1.155716781E0,-3.312712669E0,-6.346356869E-1,-1.073848009E0
1.160782146E0,-3.728165150E0,-1.010141015E0,-1.102077484E0
1.165826781E0,-4.127106667E0,-1.365939140E0,-1.083968043E0
1.170881260E0,-4.389161110E0,-1.527326465E0,-1.042955279E0
1.175943969E0,-4.429641247E0,-1.426659107E0,-1.029106975E0
1.181020219E0,-4.277841568E0,-1.152353764E0,-1.074380636E0
1.186064750E0,-4.054135799E0,-8.727221489E-1,-1.152144909E0
1.191127354E0,-3.879965305E0,-7.161283493E-1,-1.229376435E0
1.196178604E0,-3.801136017E0,-7.699242234E-1,-1.236833215E0
1.201218448E0,-3.802733898E0,-1.005347371E0,-1.158003807E0
1.206294177E0,-3.840018034E0,-1.248759985E0,-1.002475381E0
1.211366156E0,-3.887422323E0,-1.384581208E0,-8.022058606E-1
1.216412927E0,-3.907129526E0,-1.441572785E0,-5.896857977E-1
1.221530635E0,-3.877302170E0,-1.490574837E0,-3.713067472E-1
1.226524906E0,-3.797940254E0,-1.598699093E0,-1.529277414E-1
1.231757927E0,-3.746274948E0,-1.759021282E0,4.521128163E-2
1.236640792E0,-3.783559084E0,-1.995509744E0,1.554660499E-1
1.241749750E0,-3.895411491E0,-2.301773071E0,1.304323524E-1
1.246752667E0,-4.118584156E0,-2.470617294E0,1.272074319E-2
1.251811260E0,-4.488230705E0,-2.275141478E0,-9.114244580E-2
1.256869438E0,-4.866931915E0,-1.847970843E0,-1.119150817E-1
1.262043760E0,-5.119931698E0,-1.370732784E0,-2.616137452E-2
1.266986417E0,-5.198228836E0,-7.789789438E-1,1.559986919E-1
1.272033344E0,-5.059744835E0,-7.537239045E-2,3.621271849E-1
1.277107667E0,-4.770525455E0,6.298320889E-1,4.936872125E-1
1.282158031E0,-4.438695908E0,1.224249125E0,4.787735045E-1
1.287216156E0,-4.115388393E0,1.606146097E0,3.200492561E-1
1.292373813E0,-3.832028627E0,1.746228218E0,1.187144667E-1
1.297331677E0,-3.576897860E0,1.634375572E0,-5.918454006E-2
1.302446938E0,-3.355855703E0,1.245021820E0,-2.141803950E-1
1.307447563E0,-3.240807295E0,6.825625896E-1,-3.494688570E-1
1.312548083E0,-3.224828243E0,2.156659216E-2,-4.836920500E-1
1.317561885E0,-3.260514498E0,-6.527451873E-1,-6.173825860E-1
1.322640583E0,-3.315908432E0,-1.190170527E0,-7.042015791E-1
1.327682094E0,-3.373432636E0,-1.496433854E0,-7.153868675E-1
1.332789646E0,-3.394205332E0,-1.574198127E0,-6.408184171E-1
1.337793188E0,-3.335615635E0,-1.466606498E0,-5.177804828E-1
1.342867823E0,-3.196066141E0,-1.227987409E0,-3.872856796E-1
1.347911313E0,-2.998992443E0,-9.962927103E-1,-2.717046142E-1
1.353005010E0,-2.792864084E0,-8.721894622E-1,-1.790266931E-1
1.358025427E0,-2.601649046E0,-8.343726397E-1,-1.071213931E-1
1.363097771E0,-2.445055485E0,-8.620694876E-1,-4.586874694E-2
1.368140531E0,-2.318289042E0,-9.552800655E-1,1.002845820E-3
1.373216625E0,-2.208034277E0,-1.086840034E0,2.390600927E-2
1.378259073E0,-2.100975275E0,-1.254619002E0,2.443864383E-2
1.383346677E0,-1.976339221E0,-1.435713887E0,2.284074761E-2
1.388374594E0,-1.847974896E0,-1.604025364E0,2.337337844E-2
1.393425583E0,-1.720143437E0,-1.748901248E0,2.124285139E-2
1.398469802E0,-1.594442248E0,-1.868743420E0,2.816706523E-2
1.403500740E0,-1.465012789E0,-1.949703455E0,4.680917785E-2
1.408531729E0,-1.327593684E0,-1.998705626E0,7.983235270E-2
1.413562719E0,-1.172597885E0,-2.034391880E0,1.139207855E-1
1.418593708E0,-9.851115346E-1,-2.063686609E0,1.368239373E-1
1.423624646E0,-7.640693784E-1,-2.122808695E0,1.458786726E-1
1.428817510E0,-4.956229925E-1,-2.230400324E0,1.251060367E-1
1.433848552E0,-1.909576356E-1,-2.340655088E0,7.450603694E-2
1.438879490E0,1.243603528E-1,-2.430670023E0,-2.725576516E-3
1.443910479E0,4.396783412E-1,-2.455171108E0,-1.012624428E-1
1.448941469E0,7.502027154E-1,-2.414158344E0,-2.131151259E-1
1.453972458E0,1.049541831E0,-2.308164597E0,-3.350877762E-1
1.459160063E0,1.346750259E0,-2.141450882E0,-4.565278590E-1
1.464191052E0,1.643426180E0,-1.934257150E0,-5.699783564E-1
1.469221990E0,1.933177829E0,-1.712149620E0,-6.717110276E-1
1.474253031E0,2.210678816E0,-1.495368600E0,-7.729111314E-1
1.479283969E0,2.459417820E0,-1.308947444E0,-8.964816928E-1
1.484314958E0,2.647969484E0,-1.145429492E0,-1.058934331E0
1.489509021E0,2.735853434E0,-9.845747948E-1,-1.229909062E0
1.494540010E0,2.657024145E0,-7.992189527E-1,-1.347620726E0
1.499571052E0,2.260746241E0,-5.643283129E-1,-1.374784946E0
1.504601990E0,1.586434603E0,-3.267745972E-1,-1.303412199E0
1.509632979E0,1.000006914E0,-2.218461186E-1,-1.155340672E0
1.514663969E0,6.330237389E-1,-3.496777415E-1,-9.012753963E-1
1.519842823E0,3.869478106E-1,-6.346356869E-1,-4.852899313E-1
1.524873813E0,2.969330549E-1,-8.349052668E-1,4.840707406E-2
1.529904802E0,4.183730781E-1,-9.068105817E-1,5.240472555E-1
1.534935792E0,6.229037046E-1,-9.739221334E-1,7.573398948E-1
1.539966729E0,6.878848076E-1,-1.038903236E0,7.445567846E-1
1.544997719E0,5.323563814E-1,-1.066067457E0,6.034093499E-1
1.550210948E0,2.569856644E-1,-1.071393728E0,4.670556188E-1
1.555241990E0,-3.170074150E-2,-1.120928526E0,3.578661382E-1
1.560272927E0,-3.028103411E-1,-1.228520036E0,2.305671424E-1
1.565303917E0,-5.153303742E-1,-1.288174868E0,6.864708662E-2
1.570334906E0,-6.426293254E-1,-1.194431663E0,-9.380560368E-2
1.575365896E0,-7.390356660E-1,-9.994884729E-1,-2.152456492E-1
1.580526156E0,-8.961620331E-1,-7.986863256E-1,-2.780961990E-1
1.585557146E0,-1.164608479E0,-6.245157123E-1,-2.844877839E-1
1.590588135E0,-1.503894925E0,-4.604651332E-1,-2.642477453E-1
1.595619125E0,-1.860225558E0,-3.219808936E-1,-2.168435305E-1
1.600650063E0,-2.157434225E0,-1.403534561E-1,-1.017950773E-1
1.605681052E0,-2.275146008E0,2.271624506E-1,9.314814955E-2
1.610872771E0,-2.094583750E0,8.460805416E-1,3.115271330E-1
1.615903708E0,-1.566745400E0,1.495358706E0,4.319019318E-1
1.620934698E0,-7.928314805E-1,1.835177779E0,3.541377187E-1
1.625965688E0,-5.069156177E-3,1.866603017E0,1.277692020E-1
1.630996625E0,6.985374689E-1,2.002424240E0,-1.342856139E-1
1.636027615E0,1.294552445E0,2.374201059E0,-4.235046506E-1
1.641245063E0,1.655144095E0,2.641582489E0,-7.223110795E-1
1.646276052E0,1.659405231E0,2.590982199E0,-9.348311424E-1
1.651306990E0,1.501213551E0,2.319339991E0,-1.009932160E0
1.656337979E0,1.499082923E0,1.879386187E0,-9.747785330E-1
1.661369021E0,1.686569333E0,1.322785974E0,-8.959490061E-1
1.666399958E0,1.916666269E0,7.960131764E-1,-7.974121571E-1
1.671568604E0,2.049823999E0,3.587224782E-1,-6.488078833E-1
1.676599594E0,2.016800880E0,1.142445132E-1,-4.314941168E-1
1.681630583E0,1.871392608E0,1.792255938E-1,-1.843530089E-1
1.686661573E0,1.741963029E0,5.291646719E-1,1.964495704E-2
1.691692563E0,1.740897775E0,1.084167004E0,1.410849839E-1
1.696723500E0,1.934243083E0,1.860744119E0,1.762386858E-1
1.701919073E0,2.381120920E0,2.837058306E0,1.288344562E-1
1.706950063E0,3.053302288E0,3.842666864E0,2.230811492E-2
1.711981052E0,3.801117182E0,4.703931808E0,-1.321550906E-1
1.717012042E0,4.453590870E0,5.323915005E0,-3.409467340E-1
1.722042979E0,4.942014217E0,5.668528080E0,-5.476078391E-1
1.727073969E0,5.237624645E0,5.682909489E0,-7.595953345E-1
1.732311052E0,5.320715427E0,5.396353245E0,-9.156564474E-1
1.737342042E0,5.186492443E0,4.959595203E0,-9.412227273E-1
1.742373031E0,4.906327724E0,4.501532078E0,-8.639911413E-1
1.747404021E0,4.539344788E0,4.022696018E0,-6.999405622E-1
1.752434958E0,4.126022816E0,3.543327808E0,-4.213741422E-1
1.757465948E0,3.735603571E0,3.073546410E0,-1.049908698E-1
1.762642615E0,3.397914886E0,2.655963182E0,1.559986919E-1
1.767673604E0,3.155567408E0,2.312948227E0,3.599966466E-1
1.772704646E0,3.045312881E0,1.963009357E0,4.617293179E-1
1.777735583E0,3.051171780E0,1.497489214E0,3.882261217E-1
1.782766573E0,3.080466270E0,1.038360715E0,2.076639682E-1
1.787797563E0,3.070878983E0,7.741752863E-1,4.893970490E-2
1.792967563E0,3.016550541E0,7.028025985E-1,-2.722663805E-2
1.797998604E0,2.932927608E0,7.384889126E-1,-2.136768959E-2
1.803029542E0,2.840249538E0,8.098616004E-1,3.935233504E-2
1.808060531E0,2.750234604E0,9.062679410E-1,1.336281598E-1
1.813091573E0,2.663948298E0,1.036230206E0,2.390892357E-1
1.818122510E0,2.570737839E0,1.207204938E0,3.509418964E-1
1.823318552E0,2.480722904E0,1.419724941E0,4.617293179E-1
1.828349542E0,2.383251429E0,1.629581928E0,5.565377474E-1
1.833380531E0,2.277790308E0,1.803219795E0,6.332367063E-1
1.838411521E0,2.184579849E0,1.954487324E0,7.024788260E-1
1.843442510E0,2.122794390E0,2.109483004E0,7.733188868E-1
1.848473448E0,2.091901779E0,2.275131702E0,8.372346759E-1
1.853693917E0,2.087108135E0,2.453030586E0,8.830410242E-1
1.858724958E0,2.096162796E0,2.630929470E0,9.027484059E-1
1.863755896E0,2.111609221E0,2.793382406E0,8.841062784E-1
1.868786885E0,2.134512424E0,2.906832933E0,8.217884302E-1
1.873817875E0,2.187775612E0,2.945182562E0,7.179251909E-1
1.878848865E0,2.282583952E0,2.876472712E0,6.002135873E-1
1.884017615E0,2.386979818E0,2.723074913E0,4.771756530E-1
1.889048656E0,2.475929499E0,2.504163265E0,3.530724347E-1
1.894079594E0,2.536649466E0,2.245304346E0,2.316323966E-1
1.899110583E0,2.548367262E0,2.010413647E0,1.304323524E-1
1.904141573E0,2.504158974E0,1.836243033E0,7.344076782E-2
1.909172563E0,2.405621767E0,1.723857760E0,6.225549802E-2
1.914363448E0,2.261811256E0,1.641832471E0,8.888708800E-2
1.919394438E0,2.089771271E0,1.558741927E0,1.277692020E-1
1.924425427E0,1.924123049E0,1.463933468E0,1.735755354E-1
1.929456417E0,1.779779911E0,1.353678703E0,2.209797651E-1
1.934487406E0,1.663133621E0,1.235967040E0,2.667860985E-1
1.939518396E0,1.589630365E0,1.129440665E0,3.232450783E-1
1.944728396E0,1.541693568E0,1.091623902E0,3.701166511E-1
1.949759385E0,1.515594482E0,1.146484971E0,4.143250883E-1
1.954790323E0,1.492158771E0,1.273783922E0,4.537398219E-1
1.959821313E0,1.449015498E0,1.417594433E0,4.920893013E-1
1.964852302E0,1.376577616E0,1.520392418E0,5.405588150E-1
1.969883292E0,1.277508259E0,1.545426130E0,5.922240615E-1
1.975068448E0,1.172579765E0,1.497489214E0,6.454872489E-1
1.980099438E0,1.075108051E0,1.404811382E0,6.955546141E-1
1.985130427E0,9.952133298E-1,1.317992330E0,7.525462508E-1
1.990161417E0,9.355585575E-1,1.283371329E0,8.207231164E-1
1.995192406E0,8.833606839E-1,1.276979685E0,8.755841851E-1
2.000223396E0,8.151838183E-1,1.264196515E0,9.288473725E-1
2.005423865E0,7.177121639E-1,1.202411294E0,9.746537209E-1
2.010454906E0,5.834890008E-1,1.052209139E0,9.964916110E-1
2.015485844E0,4.279604554E-1,8.077310324E-1,9.916979074E-1
2.020516833E0,2.548551261E-1,5.046636462E-1,9.522831440E-1
2.025547823E0,8.121718466E-2,2.292929888E-1,8.819757700E-1
2.030578813E0,-8.070287108E-2,3.328448534E-2,7.839714885E-1
2.035764906E0,-1.994797587E-1,-5.886080861E-2,6.673251390E-1
2.040795896E0,-2.708524168E-1,-5.246922374E-2,5.421566963E-1
2.045826885E0,-3.241156042E-1,2.156659216E-2,3.892914057E-1
2.050857875E0,-3.779114187E-1,1.174403057E-1,2.135229111E-1
2.055888865E0,-4.540777206E-1,2.042592913E-1,3.189548850E-2
2.060919802E0,-5.755177140E-1,2.447392941E-1,-1.406771988E-1
2.066116885E0,-7.486230135E-1,2.292929888E-1,-2.876835763E-1
2.071147927E0,-9.787199497E-1,1.861498058E-1,-3.830246329E-1
2.076178865E0,-1.268471599E0,1.632466465E-1,-4.314941168E-1
2.081209854E0,-1.649835944E0,1.877477020E-1,-4.746373296E-1
2.086240844E0,-2.089257240E0,1.840192825E-1,-5.316289067E-1
2.091271781E0,-2.511634588E0,7.642766088E-2,-6.067299843E-1
2.096462146E0,-2.884476423E0,-1.957471669E-1,-7.047342658E-1
2.101493135E0,-3.184880733E0,-6.399620771E-1,-8.006079793E-1
2.106524125E0,-3.477295876E0,-1.236509562E0,-8.554690480E-1
2.111555115E0,-3.802733898E0,-1.837318182E0,-8.261742592E-1
2.116586104E0,-4.061060429E0,-2.180865526E0,-7.441489697E-1
2.121617094E0,-4.118584156E0,-2.137722492E0,-7.015384436E-1
2.126806365E0,-3.964121342E0,-1.772337079E0,-7.446816564E-1
2.131837354E0,-3.729763031E0,-1.294566393E0,-8.432185054E-1
2.136868344E0,-3.559320927E0,-9.153326750E-1,-9.252437353E-1
2.141899333E0,-3.454925299E0,-7.667284012E-1,-9.614627361E-1
2.146930323E0,-3.419771433E0,-8.178610206E-1,-9.635932446E-1
2.151961260E0,-3.440011501E0,-9.483558536E-1,-9.449511766E-1
2.157154906E0,-3.470904350E0,-1.021326303E0,-8.821006417E-1
2.162185896E0,-3.487948418E0,-1.005879998E0,-7.585300207E-1
2.167216885E0,-3.476763248E0,-9.920316339E-1,-5.896857977E-1
2.172247875E0,-3.446403027E0,-1.076187372E0,-3.878183365E-1
2.177278865E0,-3.424032688E0,-1.259412766E0,-1.790266931E-1
2.182309854E0,-3.436283112E0,-1.527859092E0,-1.124768518E-2
2.187497719E0,-3.511384249E0,-1.910288692E0,8.356077224E-2
2.192528708E0,-3.650401115E0,-2.364090919E0,6.704918295E-2
2.197559698E0,-3.896476984E0,-2.644788027E0,-4.107506201E-2
2.202590688E0,-4.211262226E0,-2.657571077E0,-1.625151038E-1
2.207621677E0,-4.492491722E0,-2.511097193E0,-2.328224927E-1
2.212652667E0,-4.686902523E0,-2.177669764E0,-2.557256520E-1
2.217840219E0,-4.751350880E0,-1.631722331E0,-2.317572385E-1
2.222871208E0,-4.667727947E0,-9.787158370E-1,-1.987340748E-1
2.227902198E0,-4.462664127E0,-3.257093132E-1,-1.950056404E-1
2.232933188E0,-4.187826157E0,2.170424461E-1,-2.530624866E-1
2.237964177E0,-3.890617847E0,5.808299184E-1,-3.824920356E-1
2.242995115E0,-3.612584114E0,7.097268701E-1,-5.737068057E-1
2.248192354E0,-3.384617805E0,6.079941988E-1,-7.574647665E-1
2.253223396E0,-3.217904091E0,3.251667023E-1,-8.821006417E-1
2.258254333E0,-3.137476683E0,-7.111133635E-2,-9.481469393E-1
2.263285323E0,-3.142270565E0,-5.360988379E-1,-9.737132192E-1
2.268316313E0,-3.198729515E0,-9.941622019E-1,-9.726480246E-1
2.273347302E0,-3.265841007E0,-1.388842225E0,-9.529405832E-1
2.278540063E0,-3.299396753E0,-1.729726553E0,-8.986121416E-1
2.283571052E0,-3.281819820E0,-1.996575117E0,-7.952815890E-1
2.288602042E0,-3.211512327E0,-2.140918255E0,-6.551994681E-1
2.293633031E0,-3.092735529E0,-2.179800510E0,-4.938120544E-1
2.298663969E0,-2.934543848E0,-2.196844578E0,-3.553278148E-1
2.303694958E0,-2.771026134E0,-2.219747782E0,-2.472035587E-1
2.308883396E0,-2.621356487E0,-2.227737188E0,-1.694393158E-1
2.313914385E0,-2.482339621E0,-2.216019392E0,-1.268287897E-1
2.318945375E0,-2.345985889E0,-2.183528662E0,-1.055234969E-1
2.323976365E0,-2.214425802E0,-2.140918255E0,-9.167507291E-2
2.329007354E0,-2.086061716E0,-2.105231762E0,-8.102244139E-2
2.334038292E0,-1.950240374E0,-2.069013119E0,-7.463086396E-2
2.339208917E0,-1.812288642E0,-2.022674084E0,-7.356559485E-2
2.344239906E0,-1.674869776E0,-1.979530931E0,-7.835927606E-2
2.349270896E0,-1.528928518E0,-1.936920285E0,-8.528349549E-2
2.354301885E0,-1.385118008E0,-1.895907640E0,-9.487086535E-2
2.359332823E0,-1.238644242E0,-1.855427623E0,-9.007718414E-2
2.364363813E0,-1.088974714E0,-1.828796029E0,-7.835927606E-2
2.369571260E0,-9.302504659E-1,-1.819741368E0,-6.983717531E-2
2.374602302E0,-7.571451664E-1,-1.861819267E0,-5.811927468E-2
2.379633292E0,-5.771156549E-1,-1.951301455E0,-5.332559347E-2
2.384664229E0,-3.944229782E-1,-2.066349745E0,-6.610874832E-2
2.389695219E0,-2.159913331E-1,-2.178202629E0,-1.028603390E-1
2.394726208E0,-3.383126855E-2,-2.277272224E0,-1.689066887E-1
2.399913448E0,1.584487855E-1,-2.345448971E0,-2.562582791E-1
2.404965792E0,3.709688485E-1,-2.368351936E0,-3.521319926E-1
2.410018188E0,6.106532216E-1,-2.333198309E0,-4.522667825E-1
2.415070583E0,8.732406497E-1,-2.250640631E0,-5.555973649E-1
2.420122927E0,1.154470205E0,-2.112156153E0,-6.536015868E-1
2.425175323E0,1.433036685E0,-1.937452912E0,-7.356268764E-1
2.430303344E0,1.690830350E0,-1.737716079E0,-8.112605810E-1
2.435355688E0,1.900687337E0,-1.537979126E0,-8.826332092E-1
2.440408083E0,2.047693491E0,-1.353688478E0,-9.486795664E-1
2.445460427E0,2.106815577E0,-1.191768408E0,-1.005138516E0
2.450512823E0,2.033312321E0,-1.054882050E0,-1.029639482E0
2.455565219E0,1.809607387E0,-9.526168704E-1,-1.008866906E0
2.460616104E0,1.492158771E0,-8.508842587E-1,-9.268416762E-1
2.465668448E0,1.192819715E0,-7.443578839E-1,-7.787700891E-1
2.470720844E0,9.840280414E-1,-7.081389427E-1,-5.619889498E-1
2.475773188E0,8.508701324E-1,-8.285136819E-1,-2.647804022E-1
2.480825583E0,7.720406055E-1,-1.119330645E0,1.245734170E-1
2.485877979E0,7.384848595E-1,-1.498564363E0,5.597335100E-1
2.490944333E0,7.123858929E-1,-1.793642402E0,9.176621437E-1
2.495996677E0,6.058595181E-1,-1.862884521E0,1.116333723E0
2.501049073E0,3.677730560E-1,-1.690311790E0,1.125921130E0
2.506101417E0,1.304032281E-2,-1.355286360E0,9.858389497E-1
2.511153813E0,-3.576713800E-1,-1.048490524E0,7.376325727E-1
2.516206208E0,-6.282482743E-1,-8.743200302E-1,4.441524446E-1
2.521320740E0,-7.603409290E-1,-7.507494688E-1,1.288344562E-1
2.526373083E0,-8.045493364E-1,-6.399620771E-1,-1.934077442E-1
2.531425531E0,-8.290504217E-1,-6.026778221E-1,-4.879530966E-1
2.536477875E0,-8.961620331E-1,-5.914925933E-1,-7.084626555E-1
2.541530219E0,-1.062343121E0,-5.563389063E-1,-7.915531993E-1
2.546582615E0,-1.328659058E0,-5.286419988E-1,-7.505405545E-1
2.551664125E0,-1.683391809E0,-5.989494324E-1,-6.083278656E-1
2.556716469E0,-2.120682478E0,-7.384989262E-1,-4.048625529E-1
2.561768917E0,-2.516960621E0,-6.852357388E-1,-1.481340528E-1
2.566821208E0,-2.634672403E0,-1.898882091E-1,1.650534123E-1
2.571873656E0,-2.233600616E0,8.024047613E-1,4.010092914E-1
2.576926000E0,-1.288711667E0,2.020533562E0,4.260429740E-1
2.581999229E0,-4.075548425E-2,2.956367493E0,2.566660941E-1
2.587051573E0,1.133697510E0,3.396854162E0,-4.959717020E-2
2.592104021E0,1.932645202E0,3.502315283E0,-4.272330701E-1
2.597156313E0,2.204287052E0,3.302045584E0,-7.851616144E-1
2.602208760E0,1.975788355E0,2.740651608E0,-1.028041601E0
2.607261104E0,1.511333466E0,1.939041018E0,-1.084500551E0
2.612346260E0,1.205070257E0,1.133701801E0,-9.928879738E-1
2.617398656E0,1.254072428E0,4.535309672E-1,-8.432185054E-1
2.622451052E0,1.591760874E0,-9.081871063E-2,-7.803679705E-1
2.627503448E0,1.960874677E0,-4.040061831E-1,-7.681174278E-1
2.632555792E0,2.154752493E0,-3.613956571E-1,-7.148542404E-1
2.637608188E0,2.183514357E0,3.008870035E-2,-5.774352551E-1
2.642708240E0,2.180318594E0,6.346257925E-1,-3.942099214E-1
2.647760583E0,2.220798969E0,1.352613330E0,-2.424098700E-1
2.652812979E0,2.366739750E0,2.182986498E0,-1.550582647E-1
2.657865323E0,2.664480925E0,3.154506683E0,-1.108498201E-1
2.662917719E0,3.123076916E0,4.165973663E0,-1.103171855E-1
2.667970115E0,3.687666655E0,5.038424969E0,-1.795593202E-1
2.673034542E0,4.244799614E0,5.641364098E0,-3.201741278E-1
2.678086885E0,4.660784721E0,5.909277439E0,-4.815615416E-1
2.683139281E0,4.888751030E0,5.843231201E0,-6.093931794E-1
2.688191729E0,4.943079948E0,5.492227077E0,-6.834289432E-1
2.693244073E0,4.844009876E0,4.955866814E0,-6.722437143E-1
2.698296417E0,4.643208027E0,4.346536160E0,-5.923489332E-1
2.703408396E0,4.370500088E0,3.698856354E0,-4.634520411E-1
2.708460740E0,4.054117203E0,3.042121410E0,-2.701067030E-1
2.713513135E0,3.719091892E0,2.512152672E0,-5.332559347E-2
2.718565583E0,3.386729717E0,2.149963140E0,1.394871026E-1
2.723617927E0,3.161958933E0,1.798426270E0,2.582640052E-1
2.728670323E0,3.103902102E0,1.329710245E0,2.603945136E-1
2.733712667E0,3.133729458E0,8.609942198E-1,1.757060587E-1
2.738765010E0,3.130533695E0,5.717751980E-1,8.941972256E-2
2.743817354E0,3.058628559E0,5.083920360E-1,5.905970931E-2
2.748869750E0,2.957428455E0,5.510025620E-1,8.515866846E-2
2.753922146E0,2.839184046E0,6.186468005E-1,1.458786726E-1
2.758974542E0,2.714548349E0,6.910846829E-1,2.364260852E-1
2.764079802E0,2.598967314E0,7.571310401E-1,3.211145103E-1
2.769132198E0,2.508419991E0,8.130573630E-1,3.674535155E-1
2.774184542E0,2.421068430E0,8.950827122E-1,3.797040284E-1
2.779236938E0,2.327857733E0,1.001076460E0,3.749103248E-1
2.784289333E0,2.223461866E0,1.133701801E0,3.562682271E-1
2.789341677E0,2.121196508E0,1.300415516E0,3.381587267E-1
2.794418500E0,2.041834593E0,1.477249265E0,3.392240107E-1
2.799470896E0,1.989104152E0,1.680714607E0,3.738450706E-1
2.804523240E0,1.963005304E0,1.922529459E0,4.271082580E-1
2.809575635E0,1.971527338E0,2.182986498E0,4.713166952E-1
2.814627979E0,2.027986050E0,2.465813875E0,4.867630005E-1
2.819680427E0,2.131849051E0,2.763022423E0,4.643924832E-1
2.824777875E0,2.280453444E0,3.034664392E0,4.116619527E-1
2.829830271E0,2.457287073E0,3.233335972E0,3.429524302E-1
2.834882667E0,2.643708229E0,3.332938433E0,2.651881874E-1
2.839935063E0,2.798171759E0,3.333470821E0,1.954134405E-1
2.844987406E0,2.891382217E0,3.265294075E0,1.251060367E-1
2.850039802E0,2.906296015E0,3.118820429E0,4.893970490E-2
2.855130427E0,2.810422182E0,2.901506424E0,-2.988979779E-2
2.860182823E0,2.588847160E0,2.613352776E0,-9.540349990E-2
2.865235219E0,2.269268274E0,2.232521057E0,-1.305572093E-1
2.870287615E0,1.906013608E0,1.782979846E0,-1.321550906E-1
2.875339958E0,1.573651433E0,1.340895534E0,-9.700138867E-2
2.880392354E0,1.334499836E0,9.840321541E-1,-3.628137708E-2
2.885469125E0,1.201341867E0,7.454131246E-1,2.816706523E-2
2.890521521E0,1.163524985E0,6.282341480E-1,9.048498422E-2
2.895573917E0,1.200276494E0,6.735078692E-1,1.485418379E-1
2.900626313E0,1.266322851E0,9.297037125E-1,1.911523789E-1
2.905678656E0,1.332369208E0,1.351015449E0,2.358934432E-1
2.910731052E0,1.390958786E0,1.810144186E0,3.030050397E-1
2.915816885E0,1.418123007E0,2.163811684E0,3.924871981E-1
2.920869333E0,1.402676702E0,2.325199127E0,5.059377551E-1
2.925921677E0,1.334499836E0,2.278327465E0,6.289756894E-1
2.930974021E0,1.216255546E0,2.059948444E0,7.472199202E-1
2.936026417E0,1.083630204E0,1.742499828E0,8.580073118E-1
2.941078760E0,9.669838548E-1,1.424518704E0,9.544137120E-1
2.946168396E0,8.716427088E-1,1.169920802E0,1.025786400E0
2.951220844E0,8.008027673E-1,9.739121795E-1,1.057744265E0
2.956273188E0,7.619206309E-1,8.098616004E-1,1.057744265E0
2.961325531E0,7.182448506E-1,6.601920724E-1,1.025253773E0
2.966377927E0,6.468721628E-1,5.163815022E-1,9.640010595E-1
2.971430323E0,5.339542627E-1,3.661793470E-1,8.761168122E-1
2.976511573E0,4.002636075E-1,2.244993001E-1,7.717210054E-1
2.981563969E0,2.628445923E-1,1.248971522E-1,6.444219947E-1
2.986616365E0,1.398066878E-1,9.293924272E-2,5.144598484E-1
2.991668708E0,3.061717376E-2,1.243645251E-1,4.026072025E-1
2.996721104E0,-7.697445154E-2,1.824213862E-1,3.152555823E-1
3.001773500E0,-1.925555319E-1,2.394129783E-1,2.438829243E-1
3.006862406E0,-3.299745619E-1,2.814908922E-1,1.703797430E-1
3.011914802E0,-4.993514419E-1,2.905456424E-1,9.368077666E-2
3.016967198E0,-7.129367590E-1,2.404782474E-1,2.443864383E-2
3.022019594E0,-9.680672884E-1,1.403434724E-1,-4.533611611E-2
3.027071938E0,-1.257818937E0,3.488238156E-2,-1.140456125E-1
3.032124281E0,-1.602431774E0,-4.767553508E-2,-1.944730133E-1
3.037208396E0,-2.001905918E0,-1.126566082E-1,-3.025972545E-1
3.042260844E0,-2.423217535E0,-1.840292513E-1,-4.160478115E-1
3.047313188E0,-2.832811356E0,-3.086650968E-1,-4.970078468E-1
3.052365583E0,-3.208849430E0,-5.488820076E-1,-5.369552374E-1
3.057417927E0,-3.564647436E0,-9.808464050E-1,-5.396183729E-1
3.062470271E0,-3.926304340E0,-1.557153821E0,-5.151173472E-1
3.067552563E0,-4.228838921E0,-2.030130863E0,-4.581257105E-1
3.072604958E0,-4.336963654E0,-2.210693121E0,-4.272330701E-1
3.077657354E0,-4.204870701E0,-2.071143389E0,-4.714415073E-1
3.082709750E0,-3.940685272E0,-1.738781214E0,-5.737068057E-1
3.087762094E0,-3.721241236E0,-1.395233750E0,-6.770374179E-1
3.092814490E0,-3.579560995E0,-1.195496798E0,-7.414858341E-1
3.097897510E0,-3.497535944E0,-1.209877968E0,-7.702479362E-1
3.102949906E0,-3.464512587E0,-1.320132732E0,-7.707805634E-1
3.108002302E0,-3.446935654E0,-1.366471648E0,-7.345616221E-1
3.113054698E0,-3.441076756E0,-1.327589631E0,-6.541342139E-1
3.118107042E0,-3.435217857E0,-1.308947444E0,-5.380204916E-1
3.123159438E0,-3.442674875E0,-1.386711717E0,-3.798288703E-1
3.128243760E0,-3.463979959E0,-1.556621194E0,-2.125824839E-1
3.133296208E0,-3.510851622E0,-1.794707656E0,-7.036980242E-2
3.138348552E0,-3.579028606E0,-2.169680357E0,3.133372869E-3
3.143400948E0,-3.689815998E0,-2.656505823E0,-3.521611169E-2
3.148453292E0,-3.928434849E0,-2.980878592E0,-1.412098408E-1
3.153505688E0,-4.268786430E0,-3.027750254E0,-2.376161814E-1
3.158597250E0,-4.593692303E0,-2.864764690E0,-2.908793390E-1
3.163649698E0,-4.848822594E0,-2.499379635E0,-2.972709537E-1
3.168702042E0,-4.961207867E0,-1.956627727E0,-2.610519826E-1
3.173754438E0,-4.903151035E0,-1.288174868E0,-2.045930177E-1
3.178806833E0,-4.706610203E0,-5.440883636E-1,-1.667761505E-1
3.183859177E0,-4.433369637E0,1.872150749E-1,-1.763635278E-1
3.188920375E0,-4.136161327E0,7.278363109E-1,-2.514646053E-1
3.193972771E0,-3.850137949E0,9.483458400E-1,-3.931446671E-1
3.199025167E0,-3.600866318E0,8.418195248E-1,-5.534667969E-1
3.204077510E0,-3.422434807E0,4.918804169E-1,-6.850268245E-1
3.209129906E0,-3.330289602E0,-1.358710323E-2,-8.016732335E-1
3.214182250E0,-3.320702076E0,-6.010799408E-1,-9.129932523E-1
3.219263448E0,-3.375030518E0,-1.181648493E0,-1.010464787E0
3.224315844E0,-3.461316824E0,-1.687648654E0,-1.075978518E0
3.229368240E0,-3.538548231E0,-2.057295084E0,-1.083968043E0
3.234420531E0,-3.574234724E0,-2.259695292E0,-1.017921567E0
3.239472979E0,-3.533754587E0,-2.302838326E0,-8.927532434E-1
3.244525375E0,-3.411782026E0,-2.226139307E0,-7.233763337E-1
3.249688031E0,-3.230154514E0,-2.124939442E0,-5.577278733E-1
3.254740427E0,-3.021363020E0,-2.099905729E0,-4.437446892E-1
3.259792771E0,-2.828017473E0,-2.123874187E0,-3.915467560E-1
3.264845167E0,-2.670358658E0,-2.135059118E0,-3.904815018E-1
3.269897510E0,-2.539864063E0,-2.113754034E0,-4.064604342E-1
3.274949906E0,-2.430674314E0,-2.103633881E0,-4.069930911E-1
3.279984333E0,-2.327876329E0,-2.125472069E0,-3.974057138E-1
3.285036677E0,-2.217089176E0,-2.158494949E0,-3.936772943E-1
3.290089073E0,-2.089257240E0,-2.184594154E0,-4.016667604E-1
3.295141417E0,-1.944913864E0,-2.188855171E0,-4.069930911E-1
3.300193813E0,-1.776602268E0,-2.168615103E0,-4.085910022E-1
3.305246208E0,-1.596572876E0,-2.127069712E0,-3.968730569E-1
3.310310010E0,-1.401096940E0,-2.070611000E0,-3.718393743E-1
3.315362406E0,-1.177391529E0,-2.027467728E0,-3.372183144E-1
3.320414802E0,-9.430335760E-1,-2.029065609E0,-2.908793390E-1
3.325467146E0,-7.203935981E-1,-2.091383457E0,-2.472035587E-1
3.330519594E0,-5.105366707E-1,-2.212291002E0,-2.184414417E-1
3.335571885E0,-3.006797731E-1,-2.342252970E0,-2.040603757E-1
3.340686729E0,-7.590918988E-2,-2.457834244E0,-2.248330265E-1
3.345739073E0,1.621772200E-1,-2.551577330E0,-2.828898728E-1
3.350791469E0,4.071878195E-1,-2.594187975E0,-3.702414930E-1
3.355843865E0,6.671121716E-1,-2.585665703E0,-4.591909945E-1
3.360896260E0,9.350259304E-1,-2.536663771E0,-5.236394405E-1
3.365948604E0,1.190689206E0,-2.449844599E0,-5.657173395E-1
3.371000063E0,1.440493464E0,-2.328404665E0,-5.880878568E-1
3.376052406E0,1.675384045E0,-2.176604748E0,-6.083278656E-1
3.381104802E0,1.891099930E0,-2.009358168E0,-6.546668410E-1
3.386157146E0,2.075922966E0,-1.833589792E0,-7.345616221E-1
3.391209542E0,2.232516527E0,-1.632254958E0,-8.325658441E-1
3.396261938E0,2.355021954E0,-1.413875818E0,-9.289722443E-1
3.401380115E0,2.429057598E0,-1.173126340E0,-9.843658805E-1
3.406436885E0,2.419470549E0,-9.307789803E-1,-9.912900925E-1
3.411493708E0,2.308682919E0,-7.411620617E-1,-9.284395576E-1
3.416550531E0,2.104152441E0,-7.001494169E-1,-7.793026567E-1
3.421607302E0,1.782443047E0,-8.626021147E-1,-5.438794494E-1
3.426664125E0,1.331303954E0,-1.216802120E0,-2.109845877E-1
3.431747250E0,8.870890737E-1,-1.658353925E0,1.943481714E-1
3.436804021E0,6.910805702E-1,-1.972074032E0,6.044746041E-1
3.441860844E0,6.873521805E-1,-2.048240423E0,8.963568211E-1
3.446917615E0,6.362195015E-1,-1.940116167E0,9.778494835E-1
3.451974385E0,4.737667739E-1,-1.664212823E0,8.430936337E-1
3.457031260E0,2.319519818E-1,-1.272728562E0,5.251125097E-1
3.462088083E0,-2.797232196E-2,-8.657979369E-1,1.671839654E-1
3.467111573E0,-2.319702804E-1,-5.062714815E-1,-1.177740246E-1
3.472168344E0,-3.917598128E-1,-1.877576709E-1,-3.686436117E-1
3.477225219E0,-5.547450781E-1,5.565501750E-2,-6.024689078E-1
3.482281990E0,-7.278503776E-1,1.691055894E-1,-7.883574367E-1
3.487338813E0,-9.030863047E-1,1.776276976E-1,-8.607953191E-1
3.492395583E0,-1.118269444E0,1.062550396E-1,-7.670521736E-1
3.497468917E0,-1.408021212E0,-2.401836216E-3,-5.300309658E-1
3.502525688E0,-1.795777082E0,-1.408860981E-1,-1.960709095E-1
3.507582510E0,-2.246916533E0,-2.820335031E-1,1.932829171E-1
3.512639333E0,-2.625084877E0,-2.862945497E-1,5.900935531E-1
3.517696156E0,-2.771026134E0,2.050132863E-2,9.624031782E-1
3.522752927E0,-2.565962791E0,6.692467928E-1,1.203152776E0
3.527817563E0,-1.965154052E0,1.367527127E0,1.149889588E0
3.532874333E0,-1.008014679E0,1.806415677E0,7.434915304E-1
3.537931156E0,5.991191790E-2,1.961411476E0,8.995234966E-2
3.542987979E0,8.338258862E-1,1.880984068E0,-6.397531629E-1
3.548044802E0,1.052737594E0,1.810676694E0,-1.270389199E0
3.553101573E0,1.050074339E0,2.051958799E0,-1.665069222E0
3.558154646E0,1.379773498E0,2.274599075E0,-1.940972567E0
3.563211417E0,2.055150270E0,2.019468307E0,-2.159884214E0
3.568268240E0,2.696439028E0,1.432508111E0,-2.290911674E0
3.573325063E0,3.051704407E0,8.807016611E-1,-2.280791759E0
3.578381885E0,3.082064152E0,4.396825433E-1,-2.045368433E0
3.583438656E0,2.821607351E0,9.027608484E-2,-1.571858644E0
3.588493604E0,2.326792479E0,-1.403534561E-1,-9.358963966E-1
3.593550375E0,1.782975793E0,-4.394711554E-2,-2.983362079E-1
3.598607198E0,1.482571483E0,5.920152068E-1,1.858260632E-1
3.603664021E0,1.626914620E0,1.665268302E0,4.643924832E-1
3.608720844E0,2.190438747E0,2.919615984E0,5.197861195E-1
3.613777615E0,2.994179964E0,4.146799088E0,3.834324479E-1
3.618849385E0,3.770224571E0,5.122047901E0,1.677165776E-1
3.623906208E0,4.330020428E0,5.645092487E0,-4.640138149E-2
3.628963031E0,4.642142773E0,5.667995453E0,-1.928751022E-1
3.634019854E0,4.713515282E0,5.301544666E0,-2.157782763E-1
3.639076625E0,4.606988907E0,4.700736046E0,-1.646456271E-1
3.644133448E0,4.353989124E0,3.960911274E0,-6.823927164E-2
3.649192302E0,3.999256134E0,3.165692091E0,6.172286719E-2
3.654249073E0,3.613631010E0,2.390712738E0,1.773039550E-1
3.659305896E0,3.261561394E0,1.700954556E0,2.326976657E-1
3.664362667E0,2.989386320E0,1.170453310E0,2.337629199E-1
3.669419542E0,2.841847420E0,7.358257771E-1,1.789018512E-1
3.674476313E0,2.821607351E0,3.219709098E-1,6.225549802E-2
3.679540635E0,2.863685369E0,1.783817075E-2,-6.930454075E-2
3.684597406E0,2.898306370E0,-7.377449423E-2,-1.433403641E-1
3.689654229E0,2.907893896E0,-1.518499851E-2,-1.502645761E-1
3.694711052E0,2.892447233E0,7.802555710E-2,-1.071213931E-1
3.699767875E0,2.845575809E0,1.776276976E-1,-3.361821547E-2
3.704824646E0,2.778996944E0,2.740340531E-1,5.852707475E-2
3.709884802E0,2.701232672E0,3.528635502E-1,1.677165776E-1
3.714941625E0,2.620272398E0,4.279645979E-1,2.699818909E-1
3.719998448E0,2.536116838E0,4.934783578E-1,3.477461040E-1
3.725055271E0,2.445036650E0,5.366215110E-1,4.020745754E-1
3.730112042E0,2.357685089E0,6.149183512E-1,4.313693047E-1
3.735168865E0,2.271931410E0,7.613921165E-1,4.457503557E-1
3.740233031E0,2.190438747E0,9.707164168E-1,4.564029872E-1
3.745289802E0,2.130784035E0,1.223716497E0,4.739798307E-1
3.750346625E0,2.109478712E0,1.494293451E0,5.117967129E-1
3.755403448E0,2.117468357E0,1.763805151E0,5.496135354E-1
3.760460219E0,2.148360968E0,2.025327444E0,5.666577816E-1
3.765517042E0,2.212809324E0,2.254891634E0,5.501462221E-1
3.770563240E0,2.313476562E0,2.433855772E0,5.000787973E-1
3.775620063E0,2.447700024E0,2.551034689E0,4.191187620E-1
3.780676885E0,2.611217737E0,2.604297876E0,3.163208365E-1
3.785733708E0,2.789116621E0,2.587253809E0,1.916850060E-1
3.790790531E0,2.958493710E0,2.536121130E0,6.545129418E-2
3.795847354E0,3.083662033E0,2.481260061E0,-3.787926957E-2
3.800913448E0,3.132664442E0,2.447171688E0,-1.044582352E-1
3.805970271E0,3.086858034E0,2.408822060E0,-1.193719283E-1
3.811027042E0,2.935057878E0,2.299632788E0,-7.835927606E-2
3.816083865E0,2.679394722E0,2.057817936E0,-2.725576516E-3
3.821140688E0,2.343836784E0,1.675388336E0,8.302814513E-2
3.826197458E0,1.996028304E0,1.209868193E0,1.687818468E-1
3.831270323E0,1.705211401E0,7.629899979E-1,2.619924247E-1
3.836327146E0,1.510800838E0,4.391498864E-1,3.578661382E-1
3.841383969E0,1.406937599E0,2.777624726E-1,4.489461482E-1
3.846440740E0,1.368055582E0,2.617835104E-1,5.219166875E-1
3.851497563E0,1.373914480E0,3.768319786E-1,5.719841123E-1
3.856554333E0,1.386697650E0,6.218425632E-1,5.986156464E-1
3.861606260E0,1.395219803E0,9.563353062E-1,6.055398583E-1
3.866663083E0,1.400546074E0,1.305209160E0,6.050072908E-1
3.871719854E0,1.394154549E0,1.618396759E0,6.007462144E-1
3.876776677E0,1.371783972E0,1.831449270E0,5.863651037E-1
3.881833500E0,1.332901835E0,1.900158763E0,5.746472478E-1
3.886890323E0,1.281236649E0,1.849026203E0,5.751798749E-1
3.891967510E0,1.207733393E0,1.737173557E0,5.970177650E-1
3.897024281E0,1.113457561E0,1.602950335E0,6.550746560E-1
3.902081104E0,1.005333304E0,1.426649332E0,7.237841487E-1
3.907137927E0,8.700448871E-1,1.185366988E0,7.754493952E-1
3.912194750E0,7.070595622E-1,9.020068645E-1,7.924935818E-1
3.917251521E0,5.211710334E-1,6.000046730E-1,7.690578103E-1
3.922323292E0,3.240972459E-1,3.054593205E-1,7.078052163E-1
3.927380063E0,1.414045691E-1,6.950344890E-2,6.241820455E-1
3.932436885E0,-2.938629361E-3,-8.922082186E-2,5.325693488E-1
3.937493708E0,-1.046713069E-1,-1.664524078E-1,4.436198175E-1
3.942550531E0,-1.749786884E-1,-1.632566303E-1,3.509418964E-1
3.947607302E0,-2.431555539E-1,-1.009387150E-1,2.412197739E-1
3.952686833E0,-3.321050704E-1,-3.999731503E-3,1.176492050E-1
3.957743708E0,-4.753829837E-1,1.062550396E-1,-1.550873928E-2
3.962800531E0,-6.815114617E-1,2.005308717E-1,-1.566561610E-1
3.967857302E0,-9.440988898E-1,2.351519316E-1,-2.988688350E-1
3.972914125E0,-1.256221175E0,1.952045411E-1,-4.160478115E-1
3.977970948E0,-1.625867486E0,1.232992634E-1,-5.119215846E-1
3.983028917E0,-2.026406765E0,5.672027916E-2,-6.014036536E-1
3.988085740E0,-2.431206942E0,8.783429861E-3,-6.839615703E-1
3.993142563E0,-2.839202881E0,-4.288185388E-2,-7.265721560E-1
3.998199385E0,-3.210979939E0,-1.872250587E-1,-7.484100461E-1
4.003256156E0,-3.517775774E0,-4.631283283E-1,-7.627910376E-1
4.008312979E0,-3.803799152E0,-8.295789361E-1,-7.627910376E-1
4.013335531E0,-4.064788342E0,-1.164071679E0,-7.398879528E-1
4.018392354E0,-4.192620277E0,-1.337709665E0,-7.271047831E-1
4.023449125E0,-4.082365513E0,-1.283381104E0,-7.707805634E-1
4.028506000E0,-3.787287235E0,-1.072991610E0,-8.730458617E-1
4.033562823E0,-3.468240976E0,-8.396989107E-1,-9.758437872E-1
4.038619594E0,-3.253590584E0,-6.804420352E-1,-1.013127923E0
4.043691833E0,-3.157716751E0,-6.831052303E-1,-9.742459059E-1
4.048748604E0,-3.156651258E0,-8.343726397E-1,-8.938185573E-1
4.053805427E0,-3.217371464E0,-1.053284168E0,-7.936837673E-1
4.058862250E0,-3.297266245E0,-1.243966460E0,-6.855595112E-1
4.063919021E0,-3.351594687E0,-1.388842225E0,-5.582605004E-1
4.068975896E0,-3.371834755E0,-1.526793838E0,-4.048625529E-1
4.074033292E0,-3.368638992E0,-1.702562332E0,-2.269635499E-1
4.079090167E0,-3.364377975E0,-1.962486625E0,-5.545611680E-2
4.084146938E0,-3.383019924E0,-2.390722513E0,4.521128163E-2
4.089203760E0,-3.476230383E0,-2.946790218E0,3.828706965E-2
4.094260531E0,-3.727100134E0,-3.362775564E0,-3.574874252E-2
4.099317354E0,-4.113257885E0,-3.476758718E0,-1.049908698E-1
4.104385688E0,-4.532971859E0,-3.330285072E0,-1.476014107E-1
4.109442510E0,-4.879714966E0,-2.940398693E0,-1.667761505E-1
4.114499333E0,-5.042700291E0,-2.335328817E0,-1.566561610E-1
4.119556156E0,-4.970795155E0,-1.627461195E0,-1.310898364E-1
4.124612979E0,-4.707142353E0,-8.737873435E-1,-1.145782396E-1
4.129669750E0,-4.338028431E0,-1.478103101E-1,-1.401445717E-1
4.134724906E0,-3.941217899E0,4.284972548E-1,-2.296267152E-1
4.139781729E0,-3.576897860E0,7.715121508E-1,-3.654477894E-1
4.144838552E0,-3.264775515E0,8.098616004E-1,-5.241720676E-1
4.149895323E0,-3.030417681E0,5.968089104E-1,-6.951468587E-1
4.154952146E0,-2.887672424E0,2.010634989E-1,-8.629258871E-1
4.160008917E0,-2.841333389E0,-2.921535075E-1,-1.009399533E0
4.165070844E0,-2.865834475E0,-8.407642245E-1,-1.140959620E0
4.170127615E0,-2.934011459E0,-1.372330666E0,-1.260269165E0
4.175184438E0,-3.021895647E0,-1.799501419E0,-1.331641674E0
4.180241208E0,-3.094333410E0,-2.086057186E0,-1.328445911E0
4.185298031E0,-3.125226259E0,-2.204834223E0,-1.249083877E0
4.190354854E0,-3.108714581E0,-2.154233932E0,-1.110599637E0
4.195455167E0,-3.050125122E0,-2.038120270E0,-9.412227273E-1
4.200511990E0,-2.947327137E0,-2.017347574E0,-7.968795300E-1
4.205568760E0,-2.820028305E0,-2.054631948E0,-6.940816045E-1
4.210625583E0,-2.696990252E0,-2.070611000E0,-6.259047389E-1
4.215682406E0,-2.571821690E0,-2.082328796E0,-5.779678822E-1
4.220739177E0,-2.440794468E0,-2.121210814E0,-5.321615338E-1
4.225807771E0,-2.299114227E0,-2.175539494E0,-4.820941687E-1
4.230864594E0,-2.152107954E0,-2.240520477E0,-4.240373075E-1
4.235921365E0,-2.007232189E0,-2.300175190E0,-3.776983321E-1
4.240978240E0,-1.865551829E0,-2.345448971E0,-3.473383486E-1
4.246035010E0,-1.729198098E0,-2.358232021E0,-3.276309371E-1
4.251091833E0,-1.590713859E0,-2.336926699E0,-3.031299114E-1
4.256159542E0,-1.446903348E0,-2.304436207E0,-2.722372711E-1
4.261216365E0,-1.291374803E0,-2.279935122E0,-2.370835394E-1
4.266273188E0,-1.126258969E0,-2.277804613E0,-2.013972253E-1
4.271330010E0,-9.414357543E-1,-2.318284512E0,-1.678414196E-1
4.276386781E0,-7.427640557E-1,-2.394451141E0,-1.476014107E-1
4.281443604E0,-5.350376964E-1,-2.474345922E0,-1.385466754E-1
4.286459594E0,-3.262461126E-1,-2.541989803E0,-1.507972181E-1
4.291516365E0,-1.147913039E-1,-2.600046873E0,-1.997993290E-1
4.296573240E0,1.073161364E-1,-2.650114059E0,-2.637151480E-1
4.301630010E0,3.390109539E-1,-2.687398434E0,-3.382835984E-1
4.306686833E0,5.866847634E-1,-2.681539536E0,-4.197762311E-1
4.311743656E0,8.455438018E-1,-2.594720602E0,-4.954099655E-1
4.316824177E0,1.096946001E0,-2.437061310E0,-5.641194582E-1
4.321881000E0,1.335564971E0,-2.235193968E0,-6.248394847E-1
4.326937771E0,1.566194654E0,-1.999770880E0,-6.887552738E-1
4.331994594E0,1.784573674E0,-1.757423401E0,-7.707805634E-1
4.337051417E0,1.974723220E0,-1.523065448E0,-8.783721924E-1
4.342108240E0,2.124392271E0,-1.288707376E0,-9.763764739E-1
4.347146885E0,2.212276697E0,-1.050088406E0,-1.021117449E0
4.352203708E0,2.206417799E0,-7.965558171E-1,-9.859638214E-1
4.357260531E0,2.057813406E0,-5.760462284E-1,-8.549363613E-1
4.362317302E0,1.761137843E0,-4.961514771E-1,-6.402857900E-1
4.367374125E0,1.384567142E0,-5.941557288E-1,-3.670457006E-1
4.372430948E0,1.004800677E0,-8.610042334E-1,-3.681400791E-2
4.377535844E0,7.486048341E-1,-1.264206409E0,3.200492561E-1
4.382592615E0,6.990700960E-1,-1.700431824E0,6.550746560E-1
4.387649438E0,6.655142307E-1,-2.016282558E0,9.006178975E-1
4.392706208E0,4.551246762E-1,-2.107362509E0,9.927632213E-1
4.397763083E0,9.400033951E-2,-1.922539234E0,9.283146858E-1
4.402819854E0,-3.134629428E-1,-1.518271804E0,7.307083011E-1
4.407859229E0,-6.841745973E-1,-1.112406373E0,4.835672081E-1
4.412916781E0,-9.504904747E-1,-8.162631392E-1,2.358934432E-1
4.417974281E0,-1.077789545E0,-5.574041605E-1,-3.258208279E-3
4.423031781E0,-1.087376833E0,-3.177198470E-1,-2.397467047E-1
4.428089281E0,-1.022928476E0,-1.398208141E-1,-4.474731088E-1
4.433146833E0,-9.888399243E-1,-1.358710323E-2,-5.971426368E-1
4.438201104E0,-1.056484222E0,9.453713894E-2,-6.850268245E-1
4.443258656E0,-1.222665310E0,1.701708436E-1,-7.137889862E-1
4.448316156E0,-1.503362298E0,1.680403203E-1,-6.349594593E-1
4.453373708E0,-1.866084456E0,-2.934467979E-3,-4.527994394E-1
4.458431156E0,-2.196849108E0,-3.150566518E-1,-2.051256448E-1
4.463488708E0,-2.366758585E0,-5.014778376E-1,7.290814072E-2
4.468530323E0,-2.168619633E0,-2.255745381E-1,2.955482006E-1
4.473587823E0,-1.453294873E0,4.865541160E-1,3.322997987E-1
4.478645323E0,-4.274461269E-1,1.308937550E0,1.496071070E-1
4.483702875E0,5.632489920E-1,2.176062107E0,-1.646456271E-1
4.488760375E0,1.404807210E0,3.076209784E0,-5.406836271E-1
4.493817875E0,2.013072491E0,3.685007811E0,-9.742459059E-1
4.498902615E0,2.175524950E0,3.588601351E0,-1.405144930E0
4.503960115E0,1.906546235E0,2.812556982E0,-1.669862866E0
4.509017615E0,1.533704042E0,1.789371490E0,-1.640568256E0
4.514075115E0,1.386165023E0,7.683163285E-1,-1.405144930E0
4.519132615E0,1.478842974E0,-2.106608450E-1,-1.174515367E0
4.524190167E0,1.660470366E0,-9.733895659E-1,-1.034433246E0
4.529244958E0,1.786704183E0,-1.319600105E0,-8.906227350E-1
4.534302510E0,1.781910419E0,-1.213606358E0,-6.866247654E-1
4.539360010E0,1.680177808E0,-7.155957818E-1,-4.426794052E-1
4.544417510E0,1.597087145E0,1.051897705E-1,-1.934077442E-1
4.549475063E0,1.646089435E0,1.178975463E0,7.394426968E-3
4.554532563E0,1.932645202E0,2.377396822E0,1.208449900E-1
4.559596938E0,2.479657650E0,3.576883554E0,1.144534126E-1
4.564654438E0,3.206700325E0,4.703931808E0,-3.361821547E-2
4.569711990E0,3.937470913E0,5.623254299E0,-2.690414488E-1
4.574769490E0,4.540942669E0,6.201692581E0,-5.332267880E-1
4.579826990E0,4.919643879E0,6.383852482E0,-7.446816564E-1
4.584884490E0,5.046942711E0,6.207551479E0,-8.469468951E-1
4.589943604E0,4.993679523E0,5.773989201E0,-8.597300649E-1
4.595001052E0,4.790746689E0,5.172647953E0,-7.691826820E-1
4.600058604E0,4.497266769E0,4.450931549E0,-5.753047466E-1
4.605116104E0,4.164904594E0,3.662637234E0,-2.882162035E-1
4.610173604E0,3.838934183E0,2.905235052E0,3.136285394E-2
4.615231104E0,3.535866499E0,2.287382126E0,2.886239886E-1
4.620287823E0,3.284464359E0,1.851689339E0,4.590661526E-1
4.625345323E0,3.156100035E0,1.386701941E0,4.894261658E-1
4.630402875E0,3.127870560E0,7.965458035E-1,3.440176845E-1
4.635460375E0,3.105499983E0,3.006656170E-1,1.559986919E-1
4.640517875E0,3.026670694E0,6.311186403E-2,4.308075458E-2
4.645575375E0,2.910557032E0,4.127396643E-2,1.005758531E-2
4.650632198E0,2.785920858E0,1.206360981E-1,3.402601555E-2
4.655689646E0,2.665546179E0,2.543266714E-1,8.249551058E-2
4.660747198E0,2.556356668E0,4.263667464E-1,1.357586831E-1
4.665804698E0,2.469005108E0,6.319625974E-1,1.751734316E-1
4.670862198E0,2.409883022E0,8.593963385E-1,2.023376524E-1
4.675919698E0,2.368337631E0,1.076177478E0,2.316323966E-1
4.680976469E0,2.324129343E0,1.242891192E0,2.769060731E-1
4.686033917E0,2.261811256E0,1.376049161E0,3.418871462E-1
4.691091469E0,2.208548069E0,1.488434553E0,4.255103469E-1
4.696148969E0,2.172861814E0,1.606678843E0,5.400261879E-1
4.701206469E0,2.157415628E0,1.772327304E0,6.582704186E-1
4.706263969E0,2.160611391E0,1.957150459E0,7.514809966E-1
4.711340479E0,2.180318594E0,2.147832632E0,8.020809889E-1
4.716397927E0,2.220798969E0,2.337981939E0,7.983525395E-1
4.721455479E0,2.290573597E0,2.494043350E0,7.440240979E-1
4.726512979E0,2.393371344E0,2.580329657E0,6.614661813E-1
4.731570479E0,2.519605160E0,2.581927538E0,5.677230358E-1
4.736627979E0,2.642643213E0,2.508424520E0,4.638598561E-1
4.741692667E0,2.744908571E0,2.369940042E0,3.530724347E-1
4.746750167E0,2.806693554E0,2.188312531E0,2.332302779E-1
4.751807667E0,2.798171759E0,1.994967222E0,1.192471012E-1
4.756865167E0,2.708689451E0,1.787773490E0,3.349338472E-2
4.761922719E0,2.541443110E0,1.585906148E0,-1.660313108E-3
4.766980219E0,2.321998835E0,1.397887111E0,2.068109345E-3
4.772015688E0,2.082314491E0,1.222118616E0,1.911232434E-2
4.777073188E0,1.870859861E0,1.071383834E0,4.680917785E-2
4.782130740E0,1.711603045E0,9.664552808E-1,8.835446090E-2
4.787188240E0,1.613598824E0,9.313015938E-1,1.426828951E-1
4.792245740E0,1.566727161E0,9.728469253E-1,2.018050253E-1
4.797303240E0,1.559803009E0,1.079373240E0,2.737103105E-1
4.802376729E0,1.564064026E0,1.249815583E0,3.482787609E-1
4.807434229E0,1.565661907E0,1.464998722E0,4.319019318E-1
4.812491781E0,1.554476738E0,1.666866183E0,5.219166875E-1
4.817549229E0,1.509735584E0,1.822394609E0,6.113988161E-1
4.822606781E0,1.414927125E0,1.893767357E0,6.870325208E-1
4.827664281E0,1.302541852E0,1.858080864E0,7.397630811E-1
4.832715896E0,1.178438663E0,1.749424100E0,7.754493952E-1
4.837773396E0,1.053802729E0,1.601352453E0,8.159294724E-1
4.842830896E0,9.371564388E-1,1.452748179E0,8.500178456E-1
4.847888396E0,8.284996152E-1,1.316394567E0,8.628010154E-1
4.852945948E0,7.203753591E-1,1.193889141E0,8.612031341E-1
4.858003448E0,6.122510433E-1,1.087362766E0,8.398978114E-1
4.863082354E0,4.961372912E-1,9.829668999E-1,7.967547178E-1
4.868139906E0,3.661751747E-1,8.535373807E-1,7.280451655E-1
4.873197406E0,2.154403925E-1,6.836278439E-1,6.295083165E-1
4.878254906E0,6.150981411E-2,4.892172813E-1,5.181882977E-1
4.883312406E0,-7.431128621E-2,3.011982441E-1,3.988787532E-1
4.888369906E0,-1.882944852E-1,1.456698030E-1,2.779713571E-1
4.893402823E0,-2.921576798E-1,3.221922368E-2,1.618576348E-1
4.898460323E0,-4.008145630E-1,-3.808816522E-2,3.722180799E-2
4.903517823E0,-5.217218995E-1,-8.176397532E-2,-9.487086535E-2
4.908575375E0,-6.708588004E-1,-1.227766126E-1,-2.216372192E-1
4.913632927E0,-8.642041087E-1,-1.680503041E-1,-3.340225518E-1
4.918690427E0,-1.138509512E0,-1.973450482E-1,-4.165804684E-1
4.923740844E0,-1.506025314E0,-2.000082135E-1,-4.735720456E-1
4.928798344E0,-1.911358118E0,-2.159871757E-1,-5.369552374E-1
4.933855844E0,-2.296983957E0,-2.969471812E-1,-6.237742305E-1
4.938913344E0,-2.650651217E0,-4.886946380E-1,-7.255069017E-1
4.943970896E0,-2.973426342E0,-8.093389273E-1,-8.208479285E-1
4.949028344E0,-3.319104195E0,-1.266336918E0,-8.682521582E-1
4.954096052E0,-3.702599049E0,-1.733454943E0,-8.421532512E-1
4.959153552E0,-4.015786171E0,-1.985922337E0,-7.627910376E-1
4.964211052E0,-4.133498192E0,-1.909756064E0,-7.175173759E-1
4.969268552E0,-4.033895969E0,-1.554490685E0,-7.425510883E-1
4.974326104E0,-3.797407389E0,-1.079915762E0,-8.165869117E-1
4.979383604E0,-3.569441080E0,-6.602020264E-1,-8.964816928E-1
4.984439438E0,-3.400596857E0,-4.471493363E-1,-9.619953632E-1
4.989496990E0,-3.297798872E0,-4.769767225E-1,-1.000877380E0
4.994554490E0,-3.265841007E0,-6.617999673E-1,-1.023780584E0
4.999611990E0,-3.277558804E0,-8.599389791E-1,-9.875617027E-1
5.004669490E0,-3.298864126E0,-9.888358116E-1,-8.671869636E-1
5.009726990E0,-3.331354618E0,-1.098025322E0,-6.765047312E-1
5.014796938E0,-3.385683060E0,-1.274326444E0,-4.586583674E-1
5.019854438E0,-3.471969366E0,-1.523598075E0,-2.530624866E-1
5.024911990E0,-3.570506334E0,-1.852231860E0,-8.688138425E-2
5.029969490E0,-3.688217878E0,-2.295914173E0,-6.986631081E-3
5.035026990E0,-3.841083288E0,-2.821089029E0,-3.894453496E-2
5.040084490E0,-4.067984104E0,-3.226954460E0,-1.460035294E-1
5.045139854E0,-4.352409840E0,-3.375558853E0,-2.605193257E-1
5.050197354E0,-4.638432980E0,-3.265303850E0,-3.350877762E-1
5.055254854E0,-4.854148865E0,-2.955312252E0,-3.665130734E-1
5.060312406E0,-4.952153206E0,-2.501509905E0,-3.702414930E-1
5.065369854E0,-4.906346798E0,-1.884722471E0,-3.462730646E-1
5.070427406E0,-4.717262268E0,-1.129450560E0,-3.095214665E-1
5.075497615E0,-4.446153164E0,-3.518082798E-1,-2.860856652E-1
5.080555167E0,-4.156933784E0,2.798929811E-1,-2.951403856E-1
5.085612615E0,-3.886356831E0,5.914825797E-1,-3.601214886E-1
5.090670115E0,-3.659455776E0,5.888194442E-1,-4.639846683E-1
5.095727667E0,-3.476763248E0,3.864193559E-1,-5.555973649E-1
5.100785167E0,-3.360649347E0,8.015608042E-2,-5.960773826E-1
5.105852042E0,-3.303125143E0,-3.336987793E-1,-6.200457811E-1
5.110909594E0,-3.274363041E0,-8.844400048E-1,-6.823636889E-1
5.115967042E0,-3.272765160E0,-1.425593734E0,-7.665195465E-1
5.121024542E0,-3.307386160E0,-1.848503470E0,-8.139237761E-1
5.126082094E0,-3.353192568E0,-2.115351915E0,-7.851616144E-1
5.131139594E0,-3.376628399E0,-2.186724424E0,-6.690478921E-1
5.136197354E0,-3.327093601E0,-2.056762457E0,-4.991383553E-1
5.141254854E0,-3.200859785E0,-1.812817216E0,-3.388161957E-1
5.146312354E0,-3.027754545E0,-1.623732805E0,-2.237677574E-1
5.151369854E0,-2.840800762E0,-1.511880159E0,-1.577214152E-1
5.156427406E0,-2.662901878E0,-1.422930717E0,-1.236329749E-1
5.161484906E0,-2.502579451E0,-1.336111665E0,-9.913191944E-2
5.166520844E0,-2.359301805E0,-1.274859071E0,-7.463086396E-2
5.171578344E0,-2.225610971E0,-1.269532681E0,-4.533611611E-2
5.176635844E0,-2.089257240E0,-1.355819106E0,-3.415085003E-2
5.181693396E0,-1.946511865E0,-1.477259040E0,-3.787926957E-2
5.186750844E0,-1.793113828E0,-1.582187533E0,-3.468348086E-2
5.191808396E0,-1.635454893E0,-1.689246655E0,-1.710663363E-2
5.196850844E0,-1.484187484E0,-1.787250757E0,1.005758531E-2
5.201908344E0,-1.332920074E0,-1.868743420E0,4.201549292E-2
5.206965844E0,-1.180054784E0,-1.947572947E0,7.344076782E-2
5.212023344E0,-1.029852629E0,-2.031196117E0,9.261551499E-2
5.217080844E0,-8.743241429E-1,-2.121210814E0,1.032681465E-1
5.222138396E0,-6.953598261E-1,-2.245314121E0,1.011376157E-1
5.227201625E0,-4.993514419E-1,-2.413093090E0,7.929971814E-2
5.232259177E0,-2.745808363E-1,-2.595785856E0,2.869969606E-2
5.237316625E0,-2.903758362E-2,-2.752912283E0,-4.640138149E-2
5.242374177E0,2.404740900E-1,-2.848253250E0,-1.369487792E-1
5.247431625E0,5.296931267E-1,-2.861036539E0,-2.408119738E-1
5.252489177E0,8.300974965E-1,-2.792326689E0,-3.537299037E-1
5.257572823E0,1.134762883E0,-2.642657280E0,-4.661152065E-1
5.262630375E0,1.437297583E0,-2.423745632E0,-5.577278733E-1
5.267687875E0,1.731842995E0,-2.159027815E0,-6.269699931E-1
5.272745427E0,2.000821829E0,-1.875667572E0,-6.866247654E-1
5.277802875E0,2.225592375E0,-1.589111686E0,-7.579973936E-1
5.282860427E0,2.396567106E0,-1.282848477E0,-8.474795222E-1
5.287915583E0,2.500963211E0,-9.526168704E-1,-9.566690326E-1
5.292973083E0,2.507354498E0,-6.143957376E-1,-1.045085788E0
5.298030635E0,2.355554581E0,-2.692503631E-1,-1.056803823E0
5.303088135E0,2.029051304E0,3.168659657E-2,-9.614627361E-1
5.308145635E0,1.597619772E0,1.307560951E-1,-7.755742669E-1
5.313203135E0,1.156068087E0,-9.561239928E-2,-5.135194659E-1
5.318256833E0,7.555290461E-1,-6.527451873E-1,-1.321550906E-1
5.323314385E0,5.589879155E-1,-1.331318021E0,3.568008542E-1
5.328371885E0,6.308932304E-1,-1.839981318E0,7.983525395E-1
5.333429385E0,7.251690626E-1,-2.106297255E0,1.011937976E0
5.338486885E0,6.170447469E-1,-2.121743441E0,1.009807467E0
5.343544438E0,3.432720006E-1,-1.844242334E0,8.670620918E-1
5.348612667E0,1.090979669E-2,-1.371798038E0,6.438893676E-1
5.353670219E0,-2.825703025E-1,-9.361053109E-1,3.839650750E-1
5.358727719E0,-4.871009290E-1,-6.394293904E-1,1.075292006E-1
5.363785219E0,-6.154651046E-1,-4.375619590E-1,-1.816898584E-1
5.368842771E0,-7.177304029E-1,-3.161219358E-1,-4.400162399E-1
5.373900219E0,-8.413009644E-1,-2.804355919E-1,-6.301657557E-1
5.378953760E0,-1.001623154E0,-2.346292734E-1,-7.095279694E-1
5.384011260E0,-1.198696852E0,-1.936166286E-1,-6.557320952E-1
5.389068813E0,-1.460219145E0,-2.452819049E-1,-4.922141731E-1
5.394126313E0,-1.806429625E0,-3.832335472E-1,-2.498667389E-1
5.399183813E0,-2.178739548E0,-4.657914639E-1,5.639655143E-2
5.404241313E0,-2.434935570E0,-3.709830046E-1,3.983461559E-1
5.409309281E0,-2.413630009E0,2.849080414E-2,6.976851821E-1
5.414367042E0,-2.014156342E0,7.193142176E-1,8.169947267E-1
5.419424802E0,-1.254623294E0,1.458607197E0,6.944894195E-1
5.424482563E0,-2.570039928E-1,2.062078953E0,3.424198031E-1
5.429540323E0,7.523332238E-1,2.466346264E0,-1.294919252E-1
5.434598135E0,1.422916651E0,2.641582489E0,-5.737068057E-1
5.439646729E0,1.537965059E0,2.620276928E0,-9.097974896E-1
5.444704490E0,1.288693428E0,2.443975925E0,-1.099946856E0
5.449762250E0,1.115588069E0,2.104156733E0,-1.153742790E0
5.454820010E0,1.319053411E0,1.512402892E0,-1.164927959E0
5.459877771E0,1.751017690E0,6.809647083E-1,-1.211799502E0
5.464935531E0,2.063672304E0,-1.126566082E-1,-1.242159605E0
5.469991104E0,2.107348204E0,-5.366314650E-1,-1.159069061E0
5.475048865E0,1.993365288E0,-4.487472475E-1,-9.587996006E-1
5.480106625E0,1.914003134E0,8.441713452E-2,-7.249742150E-1
5.485164385E0,1.991767406E0,8.141226768E-1,-5.348246694E-1
5.490222198E0,2.231451511E0,1.608809352E0,-4.059278071E-1
5.495279906E0,2.582455635E0,2.470074892E0,-3.111193776E-1
5.500335479E0,3.004832745E0,3.352645636E0,-2.754330337E-1
5.505393240E0,3.441058159E0,4.161713123E0,-3.420120180E-1
5.510451000E0,3.829346657E0,4.799805641E0,-4.597236216E-1
5.515508760E0,4.098858356E0,5.184365749E0,-5.705110431E-1
5.520566521E0,4.238408089E0,5.262129784E0,-6.275026202E-1
5.525624281E0,4.246930122E0,5.038957119E0,-6.067299843E-1
5.530684906E0,4.140936375E0,4.599003315E0,-4.948773086E-1
5.535742667E0,3.983277082E0,4.041337967E0,-3.473383486E-1
5.540800427E0,3.798453808E0,3.427746773E0,-1.784940511E-1
5.545858188E0,3.605641365E0,2.797110796E0,1.644916646E-2
5.550915948E0,3.432535887E0,2.252228260E0,2.231102884E-1
5.555973708E0,3.297780037E0,1.843167186E0,3.983461559E-1
5.561035844E0,3.223211765E0,1.526251316E0,5.176556706E-1
5.566093604E0,3.242918968E0,1.182703853E0,5.373630524E-1
5.571151365E0,3.312161207E0,7.906868458E-1,4.324345589E-1
5.576209125E0,3.335597038E0,5.094572306E-1,2.721123993E-1
5.581266938E0,3.287660122E0,4.077246189E-1,1.490744799E-1
5.586324646E0,3.199243307E0,4.114530385E-1,7.876709104E-2
5.591405167E0,3.090053797E0,4.620530605E-1,5.586391687E-2
5.596462927E0,2.969146252E0,5.414152145E-1,7.716919482E-2
5.601520688E0,2.840781927E0,6.426151991E-1,1.038007811E-1
5.606578448E0,2.718809366E0,7.768384218E-1,1.203123629E-1
5.611636208E0,2.617609501E0,9.313015938E-1,1.256386787E-1
5.616693969E0,2.525996923E0,1.058068037E0,1.309649944E-1
5.621750948E0,2.440243006E0,1.140625954E0,1.485418379E-1
5.626808708E0,2.349163055E0,1.220520735E0,1.799671203E-1
5.631866521E0,2.275127172E0,1.314796567E0,2.241755575E-1
5.636924281E0,2.235179663E0,1.422920704E0,2.907545269E-1
5.641982042E0,2.233049393E0,1.549154520E0,3.908892870E-1
5.647039802E0,2.247962952E0,1.721727252E0,5.054051280E-1
5.652049229E0,2.254354477E0,1.954487324E0,6.145946383E-1
5.657106990E0,2.260213375E0,2.209085226E0,6.923588514E-1
5.662164750E0,2.282583952E0,2.461552858E0,7.221862078E-1
5.667222510E0,2.344369411E0,2.686856031E0,7.147293687E-1
5.672280271E0,2.450895786E0,2.855700254E0,6.891630888E-1
5.677338031E0,2.596304178E0,2.969150782E0,6.476178169E-1
5.682418917E0,2.747571468E0,3.024544477E0,5.735819936E-1
5.687476677E0,2.877533674E0,3.018685579E0,4.830345809E-1
5.692534490E0,2.952102184E0,2.936127663E0,3.898240328E-1
5.697592250E0,2.933459997E0,2.760891676E0,3.189840019E-1
5.702650010E0,2.797106266E0,2.471672773E0,2.848955691E-1
5.707707771E0,2.543040991E0,2.062611341E0,2.864934504E-1
5.712779958E0,2.203222036E0,1.571524978E0,3.152555823E-1
5.717837719E0,1.852750421E0,1.069253325E0,3.578661382E-1
5.722895479E0,1.563531399E0,6.410173178E-1,4.036724269E-1
5.727953292E0,1.379240870E0,3.683098555E-1,4.505440593E-1
5.733011000E0,1.283367038E0,2.804256380E-1,4.894261658E-1
5.738068813E0,1.264724970E0,3.709730208E-1,5.128619671E-1
5.743118188E0,1.305204988E0,6.271689534E-1,5.181882977E-1
5.748175948E0,1.387763023E0,1.022914410E0,5.171229839E-1
5.753233708E0,1.463929176E0,1.526784062E0,5.139272213E-1
5.758291521E0,1.506539822E0,2.030653715E0,5.208514333E-1
5.763349281E0,1.499615669E0,2.416811705E0,5.453525186E-1
5.768407042E0,1.446884990E0,2.597906351E0,5.746472478E-1
5.773473344E0,1.359533429E0,2.539849758E0,6.087356806E-1
5.778531104E0,1.240756631E0,2.314013720E0,6.422914863E-1
5.783588917E0,1.107065916E0,2.015207291E0,6.864998937E-1
5.788646677E0,9.557985663E-1,1.722792506E0,7.541441321E-1
5.793704438E0,8.061290383E-1,1.463400841E0,8.271147013E-1
5.798762146E0,6.639163494E-1,1.225847006E0,8.782473207E-1
5.803869125E0,5.259647369E-1,1.009065986E0,8.862368464E-1
5.808926885E0,3.896109760E-1,8.056005836E-1,8.484199643E-1
5.813984646E0,2.362130284E-1,6.010699272E-1,7.834389210E-1
5.819042406E0,6.364033371E-2,4.002677798E-1,6.976851821E-1
5.824100167E0,-1.068018302E-1,1.994656026E-1,6.034093499E-1
5.829157927E0,-2.564713359E-1,6.652902812E-3,5.091335177E-1
5.834164646E0,-3.896293044E-1,-1.424839795E-1,4.164555967E-1
5.839222406E0,-5.073408484E-1,-2.277050614E-1,3.109945059E-1
5.844280219E0,-6.122693419E-1,-2.404882163E-1,1.842281669E-1
5.849337979E0,-7.326440811E-1,-2.058671564E-1,4.574391246E-2
5.854395740E0,-8.812482953E-1,-1.760397851E-1,-1.028603390E-1
5.859453500E0,-1.078322172E0,-1.978776902E-1,-2.360182852E-1
5.864500323E0,-1.357421160E0,-2.873598337E-1,-3.244351745E-1
5.869558135E0,-1.726534843E0,-4.157240689E-1,-3.563930392E-1
5.874615896E0,-2.145716190E0,-5.701872706E-1,-3.713067472E-1
5.879673656E0,-2.565962791E0,-7.949578762E-1,-4.053951800E-1
5.884731417E0,-2.965436697E0,-1.072458982E0,-4.964752197E-1
5.889789177E0,-3.390476704E0,-1.418669581E0,-6.109910011E-1
5.894910844E0,-3.838952541E0,-1.759021282E0,-6.685152650E-1
5.899968604E0,-4.180369854E0,-1.860221386E0,-6.610584855E-1
5.905026365E0,-4.309799194E0,-1.639179111E0,-6.466773748E-1
5.910084177E0,-4.239491940E0,-1.244499087E0,-6.839615703E-1
5.915141885E0,-4.022178173E0,-8.871031404E-1,-7.702479362E-1
5.920199698E0,-3.767047405E0,-7.060083747E-1,-9.028732181E-1
5.925200792E0,-3.571571589E0,-7.123999596E-1,-1.033900619E0
5.930258604E0,-3.485285044E0,-9.307789803E-1,-1.102610111E0
5.935316365E0,-3.470904350E0,-1.348894835E0,-1.083968043E0
5.940374073E0,-3.467708349E0,-1.790446520E0,-9.886269569E-1
5.945431885E0,-3.461316824E0,-2.071143389E0,-8.560016155E-1
5.950489646E0,-3.459186316E0,-2.202171087E0,-7.127236724E-1
5.955534125E0,-3.492209435E0,-2.319350004E0,-5.603910089E-1
5.960591938E0,-3.570506334E0,-2.470617294E0,-4.101888537E-1
5.965649698E0,-3.677565336E0,-2.625080347E0,-2.807593644E-1
5.970707458E0,-3.796342134E0,-2.747585773E0,-1.982014328E-1
5.975765219E0,-3.929500103E0,-2.836002827E0,-1.694393158E-1
5.980822979E0,-4.072778225E0,-3.011238575E0,-1.950056404E-1
5.985888448E0,-4.206468582E0,-3.296196461E0,-2.914119959E-1
5.990946260E0,-4.408336163E0,-3.337741852E0,-4.469404817E-1
5.996003969E0,-4.641628742E0,-3.043196440E0,-5.726415515E-1
6.001061781E0,-4.752416134E0,-2.598448753E0,-6.445468664E-1
6.006119542E0,-4.713533878E0,-1.996575117E0,-6.797005534E-1
6.011177302E0,-4.546820641E0,-1.233846307E0,-6.882226467E-1
6.016225531E0,-4.278373718E0,-4.311704040E-1,-6.930163503E-1
6.021283344E0,-3.964653730E0,3.251667023E-1,-7.249742150E-1
6.026341104E0,-3.672239065E0,9.217143059E-1,-8.155216575E-1
6.031398865E0,-3.449066401E0,1.205607057E0,-9.614627361E-1
6.036456625E0,-3.273830414E0,1.030903816E0,-1.111664772E0
6.041514385E0,-3.117769241E0,4.950762391E-1,-1.228843808E0
6.046561781E0,-3.035211325E0,-1.616587192E-1,-1.297553301E0
6.051619542E0,-3.061310291E0,-8.375684619E-1,-1.325250149E0
6.056677302E0,-3.143335581E0,-1.518804312E0,-1.360403895E0
6.061735063E0,-3.241339922E0,-2.137722492E0,-1.415264845E0
6.066792823E0,-3.316440821E0,-2.605373144E0,-1.441363931E0
6.071850583E0,-3.346801043E0,-2.842926979E0,-1.396622777E0
6.076909229E0,-3.317506313E0,-2.842394114E0,-1.275182724E0
6.081966990E0,-3.228556871E0,-2.665027857E0,-1.103675365E0
6.087024750E0,-3.083680868E0,-2.518021584E0,-9.422879815E-1
6.092082510E0,-2.906847239E0,-2.492987871E0,-8.192500472E-1
6.097140271E0,-2.731611252E0,-2.468486786E0,-7.382900119E-1
6.102198031E0,-2.570756674E0,-2.402972937E0,-6.828963757E-1
6.107273813E0,-2.418956518E0,-2.360895157E0,-6.328289509E-1
6.112331573E0,-2.260232210E0,-2.359829903E0,-5.822289586E-1
6.117389385E0,-2.102040529E0,-2.389124632E0,-5.316289067E-1
6.122447146E0,-1.934793949E0,-2.432267666E0,-4.906162620E-1
6.127504906E0,-1.769678116E0,-2.459964752E0,-4.666478336E-1
6.132562667E0,-1.610953808E0,-2.466888905E0,-4.442772865E-1
6.137629438E0,-1.459153771E0,-2.476476192E0,-4.336246848E-1
6.142687250E0,-1.318006396E0,-2.462095022E0,-4.155151844E-1
6.147745010E0,-1.183783174E0,-2.420549870E0,-3.830246329E-1
6.152802771E0,-1.056484222E0,-2.400842667E0,-3.510667682E-1
6.157860531E0,-9.313157201E-1,-2.409897327E0,-3.143151402E-1
6.162918292E0,-7.992230654E-1,-2.455171108E0,-2.738351226E-1
6.167966990E0,-6.394335032E-1,-2.547316313E0,-2.418772280E-1
6.173024750E0,-4.546103776E-1,-2.691659451E0,-2.285614461E-1
6.178082563E0,-2.522102892E-1,-2.886602640E0,-2.376161814E-1
6.183140271E0,-3.596179560E-2,-3.081013441E0,-2.701067030E-1
6.188198083E0,1.898740679E-1,-3.228552341E0,-3.313593566E-1
6.193255792E0,4.114488661E-1,-3.286076546E0,-4.192436039E-1
6.198312094E0,6.298279762E-1,-3.232280731E0,-5.225741267E-1
6.203369906E0,8.524680138E-1,-3.067697525E0,-6.136541963E-1
6.208427667E0,1.068183899E0,-2.805642605E0,-6.775699854E-1
6.213485427E0,1.274845004E0,-2.481802702E0,-7.255069017E-1
6.218543188E0,1.483636618E0,-2.118015051E0,-7.803679705E-1
6.223600948E0,1.693493605E0,-1.764347672E0,-8.538711667E-1
6.228663656E0,1.899089336E0,-1.426659107E0,-9.481469393E-1
6.233721469E0,2.085510254E0,-1.078317881E0,-1.041890144E0
6.238779229E0,2.259148121E0,-6.953557134E-1,-1.092490077E0
6.243836990E0,2.401360989E0,-2.921535075E-1,-1.061597347E0
6.248894750E0,2.432786226E0,1.783817075E-2,-9.614627361E-1
6.253952510E0,2.239973307E0,1.025266200E-1,-8.000752926E-1
6.259005635E0,1.858609438E0,-6.045869738E-2,-5.476078391E-1
6.264063396E0,1.403741837E0,-4.492798746E-1,-2.136477530E-1
6.269121156E0,1.043682814E0,-1.043164253E0,1.400197297E-1
6.274178917E0,8.924153447E-1,-1.719606638E0,4.723819494E-1
6.279236677E0,8.860238194E-1,-2.213356018E0,7.823736072E-1
6.284294438E0,8.119879961E-1,-2.458366871E0,9.762516022E-1
6.289352823E0,5.334215760E-1,-2.479671955E0,9.608052373E-1
6.294410583E0,1.019898206E-1,-2.193116188E0,7.956894040E-1
6.299468396E0,-3.406271636E-1,-1.715878129E0,5.576030612E-1
6.304526104E0,-6.948272586E-1,-1.261543274E0,2.726450264E-1
6.309583865E0,-9.137388468E-1,-7.949578762E-1,-4.214032367E-2
6.314641677E0,-9.973621368E-1,-2.783050835E-1,-3.563930392E-1
6.319751781E0,-1.023460984E0,1.531266421E-1,-6.376225948E-1
6.324809490E0,-1.088442087E0,3.981372416E-1,-8.544037342E-1
6.329867302E0,-1.216806412E0,4.487372637E-1,-9.854311347E-1
6.334925063E0,-1.403227568E0,3.480698764E-1,-1.000877380E0
6.339982823E0,-1.679663301E0,1.302234828E-1,-8.794374466E-1
6.345040583E0,-2.085529089E0,-2.149219066E-1,-6.493405104E-1
6.350028396E0,-2.530809164E0,-5.249136090E-1,-3.585235775E-1
6.355086156E0,-2.790733337E0,-4.743135571E-1,-3.148769215E-2
6.360143917E0,-2.620823860E0,2.143792808E-1,2.486765981E-1
6.365201677E0,-1.837854981E0,1.206672311E0,3.482787609E-1
6.370259438E0,-5.691261292E-1,2.001891375E0,2.257734537E-1
6.375317250E0,8.130532503E-1,2.577666283E0,-1.108498201E-1
6.380390896E0,1.898556828E0,3.027740240E0,-5.886205435E-1
6.385448656E0,2.284181833E0,3.178474903E0,-1.090892196E0
6.390506417E0,1.939569473E0,2.886592865E0,-1.466930151E0
6.395564177E0,1.429840803E0,2.114809513E0,-1.647492409E0
6.400621938E0,1.264192462E0,1.048480749E0,-1.646427155E0
6.405679750E0,1.417590380E0,-3.649026901E-2,-1.535107017E0
6.410767042E0,1.658339858E0,-9.723242521E-1,-1.397155523E0
6.415824802E0,1.819727302E0,-1.646103382E0,-1.178243756E0
6.420882667E0,1.788834572E0,-2.018945694E0,-8.304353356E-1
6.425940531E0,1.558737755E0,-2.023206711E0,-4.240373075E-1
6.430998344E0,1.246082902E0,-1.560349584E0,-7.995717973E-2
6.436056208E0,1.051139712E0,-5.579367280E-1,1.528028995E-1
6.441129906E0,1.176840782E0,9.669879675E-1,2.614597678E-1
6.446187667E0,1.744626284E0,2.843449831E0,2.161860764E-1
6.451245531E0,2.683655739E0,4.799273014E0,5.746181309E-2
6.456303396E0,3.760104418E0,6.472269058E0,-1.374814212E-1
6.461361208E0,4.675165653E0,7.507173061E0,-3.009993732E-1
6.466419073E0,5.246679783E0,7.836871624E0,-3.979383409E-1
6.471445010E0,5.463993549E0,7.617959976E0,-4.245699346E-1
6.476502875E0,5.384099007E0,7.043250561E0,-4.101888537E-1
6.481560688E0,5.045344830E0,6.199029446E0,-3.308267295E-1
6.486618604E0,4.530822754E0,5.083165646E0,-1.486666799E-1
6.491676417E0,3.949188709E0,3.781414270E0,1.117902622E-1
6.496734281E0,3.412828684E0,2.481792927E0,3.610619009E-1
6.501770531E0,2.997375727E0,1.386169195E0,5.139272213E-1
6.506828396E0,2.747038841E0,6.106573343E-1,5.597335100E-1
6.511886208E0,2.641577959E0,1.035918817E-1,5.267103910E-1
6.516944073E0,2.676731586E0,-3.624608815E-1,3.509418964E-1
6.522001885E0,2.774735928E0,-7.933599949E-1,4.840707406E-2
6.527059750E0,2.835455894E0,-9.861726761E-1,-2.179088145E-1
6.532186208E0,2.830662251E0,-9.116042852E-1,-3.478709459E-1
6.537243969E0,2.775268316E0,-6.921599507E-1,-3.521319926E-1
6.542301781E0,2.696971416E0,-4.311704040E-1,-2.823572457E-1
6.547359698E0,2.613348484E0,-1.621913612E-1,-1.832877398E-1
6.552417510E0,2.539845228E0,9.293924272E-2,-9.646876156E-2
6.557475375E0,2.485516548E0,3.198403716E-1,-4.267295450E-2
6.562533188E0,2.440243006E0,5.195773244E-1,-1.178031694E-2
6.567536052E0,2.404023886E0,6.527352333E-1,2.124285139E-2
6.572593865E0,2.366207361E0,7.550005317E-1,6.811445206E-2
6.577651729E0,2.315607309E0,8.982784748E-1,1.464113146E-1
6.582709594E0,2.261278868E0,1.116124868E0,2.699818909E-1
6.587767458E0,2.222396851E0,1.372320771E0,4.212493002E-1
6.592825271E0,2.206417799E0,1.657278776E0,5.719841123E-1
6.597870167E0,2.205884933E0,1.958215714E0,7.094030976E-1
6.602928031E0,2.218668222E0,2.259152651E0,8.191251755E-1
6.607985844E0,2.233581781E0,2.540915012E0,8.814431429E-1
6.613043708E0,2.254887342E0,2.791251898E0,8.825083971E-1
6.618101573E0,2.299628258E0,2.998978138E0,8.303105235E-1
6.623159385E0,2.379523039E0,3.150778294E0,7.296431065E-1
6.628224385E0,2.492440939E0,3.249315023E0,5.730493069E-1
6.633282198E0,2.633588314E0,3.269022465E0,3.695840240E-1
6.638340063E0,2.783257961E0,3.229607821E0,1.496071070E-1
6.643397875E0,2.904698133E0,3.168887854E0,-3.628137708E-2
6.648455792E0,2.968080997E0,3.093254089E0,-1.289593130E-1
6.653513604E0,2.937188625E0,2.988858223E0,-1.215024516E-1
6.658572302E0,2.793910503E0,2.767283201E0,-4.373821989E-2
6.663630115E0,2.530257940E0,2.353428602E0,5.639655143E-2
6.668687979E0,2.181384087E0,1.733977795E0,1.458786726E-1
6.673745844E0,1.827184081E0,9.824343324E-1,2.374913394E-1
6.678803656E0,1.537965059E0,2.633814216E-1,3.429524302E-1
6.683861521E0,1.340891361E0,-2.703155875E-1,4.510766864E-1
6.688914385E0,1.233299732E0,-5.472841263E-1,5.304387808E-1
6.693972302E0,1.202407122E0,-5.515452027E-1,5.634619594E-1
6.699030115E0,1.233299732E0,-3.028061390E-1,5.544072390E-1
6.704087927E0,1.306802869E0,1.408761144E-1,5.261777639E-1
6.709145792E0,1.377642989E0,7.081289291E-1,4.899587929E-1
6.714203656E0,1.421318769E0,1.257804871E0,4.675882757E-1
6.719269385E0,1.436232448E0,1.686040878E0,4.595988095E-1
6.724327250E0,1.420253396E0,1.947030544E0,4.723819494E-1
6.729385063E0,1.369653463E0,2.038110495E0,5.080682635E-1
6.734442927E0,1.286030293E0,1.998162985E0,5.581356287E-1
6.739500740E0,1.178438663E0,1.847428322E0,6.247146130E-1
6.744558604E0,1.044748068E0,1.614668250E0,6.998156905E-1
6.749611833E0,8.801648617E-1,1.297219753E0,7.424262166E-1
6.754669646E0,6.868195534E-1,9.105289578E-1,7.482851744E-1
6.759727510E0,4.695057273E-1,4.988046288E-1,7.312409878E-1
6.764785375E0,2.543224990E-1,1.094508246E-1,6.971525550E-1
6.769843188E0,5.671612918E-2,-2.074650526E-1,6.492156982E-1
6.774901052E0,-1.025407687E-1,-4.237135351E-1,5.938220024E-1
6.779957979E0,-2.101323903E-1,-5.494146347E-1,5.288408995E-1
6.785015896E0,-2.820376754E-1,-5.760462284E-1,4.398913980E-1
6.790073708E0,-3.443555832E-1,-5.089346170E-1,3.301692605E-1
6.795131573E0,-4.162608981E-1,-3.683198392E-1,2.023376524E-1
6.800189385E0,-5.265156031E-1,-1.946818978E-1,6.119023263E-2
6.805247250E0,-7.065451145E-1,-3.755553067E-2,-9.274033457E-2
6.810301313E0,-9.398378730E-1,6.524239480E-2,-2.509319782E-1
6.815359177E0,-1.200827360E0,8.921082318E-2,-3.808941245E-1
6.820416990E0,-1.498568535E0,6.311186403E-2,-4.730394185E-1
6.825474854E0,-1.846377015E0,3.062132932E-2,-5.284330845E-1
6.830532719E0,-2.258634329E0,3.914344311E-2,-5.428141952E-1
6.835590531E0,-2.718295574E0,4.287186265E-2,-5.598583817E-1
6.840650583E0,-3.153455496E0,-4.927343130E-2,-5.683804750E-1
6.845708500E0,-3.532689333E0,-3.352966905E-1,-5.486731529E-1
6.850766313E0,-3.911923409E0,-7.768484354E-1,-5.023341775E-1
6.855824177E0,-4.273047447E0,-1.174724221E0,-4.304288924E-1
6.860881990E0,-4.480241299E0,-1.349427462E0,-3.601214886E-1
6.865939854E0,-4.407803535E0,-1.250890613E0,-3.159130514E-1
6.870997927E0,-4.129237175E0,-9.920316339E-1,-3.302941024E-1
6.876055844E0,-3.810723305E0,-7.438251972E-1,-4.219067693E-1
6.881113656E0,-3.588083267E0,-6.346356869E-1,-5.566625595E-1
6.886171521E0,-3.531624317E0,-8.199915886E-1,-6.930163503E-1
6.891229385E0,-3.591811419E0,-1.291370630E0,-8.022058606E-1
6.896287198E0,-3.650933743E0,-1.785120249E0,-8.597300649E-1
6.901363813E0,-3.621106386E0,-2.001368761E0,-8.677195311E-1
6.906421677E0,-3.515112400E0,-1.987520337E0,-8.315005898E-1
6.911479490E0,-3.394205332E0,-1.988585591E0,-7.548016310E-1
6.916537354E0,-3.324430466E0,-2.117482662E0,-6.717110276E-1
6.921595167E0,-3.332419872E0,-2.360362530E0,-6.061973572E-1
6.926653031E0,-3.398998976E0,-2.763032198E0,-5.694457889E-1
6.931697146E0,-3.524699926E0,-3.306849241E0,-5.998057723E-1
6.936755010E0,-3.776102304E0,-3.733487129E0,-6.818310618E-1
6.941812875E0,-4.155868530E0,-3.900733471E0,-7.441489697E-1
6.946870688E0,-4.534570217E0,-3.890613556E0,-7.553342581E-1
6.951928552E0,-4.840833187E0,-3.665310383E0,-7.143215537E-1
6.956986417E0,-5.046429157E0,-3.130015612E0,-5.838268399E-1
6.962046156E0,-5.089039326E0,-2.315088749E0,-3.745025396E-1
6.967104021E0,-4.961740494E0,-1.296696901E0,-1.348182559E-1
6.972161833E0,-4.711403370E0,-2.122587413E-1,6.278812885E-2
6.977219698E0,-4.391291618E0,6.932152510E-1,1.501397341E-1
6.982277510E0,-4.046146393E0,1.251413465E0,1.101923585E-1
6.987335375E0,-3.721241236E0,1.417061925E0,-7.519262843E-3
6.992374438E0,-3.432554722E0,1.219988108E0,-1.470687836E-1
6.997432302E0,-3.195000887E0,7.683163285E-1,-3.196414709E-1
7.002490115E0,-3.049059868E0,1.217013672E-1,-5.460100174E-1
7.007547979E0,-2.994731426E0,-5.936230421E-1,-7.952815890E-1
7.012605792E0,-3.013373613E0,-1.256216884E0,-1.039226890E0
7.017663656E0,-3.060777903E0,-1.787783504E0,-1.244822741E0
7.022724750E0,-3.086344004E0,-2.155831814E0,-1.371589065E0
7.027782615E0,-3.061310291E0,-2.307099342E0,-1.372654438E0
7.032840479E0,-2.984611273E0,-2.238922596E0,-1.256540656E0
7.037898292E0,-2.850388050E0,-2.049305677E0,-1.082370162E0
7.042956104E0,-2.711904049E0,-1.936920285E0,-9.199174643E-1
7.048013969E0,-2.601116419E0,-1.945442438E0,-8.054016829E-1
7.053077510E0,-2.516428232E0,-1.985389829E0,-7.196479440E-1
7.058135323E0,-2.428543806E0,-2.032261372E0,-6.413510442E-1
7.063193188E0,-2.318289042E0,-2.059425592E0,-5.587931275E-1
7.068251052E0,-2.186728954E0,-2.100438356E0,-4.661152065E-1
7.073308865E0,-2.058364630E0,-2.160092831E0,-3.739699125E-1
7.078366729E0,-1.935859203E0,-2.201638222E0,-2.903467417E-1
7.083447823E0,-1.814419150E0,-2.194181442E0,-2.040603757E-1
7.088505688E0,-1.691381216E0,-2.194181442E0,-1.204371899E-1
7.093563552E0,-1.565680146E0,-2.214421511E0,-5.385822430E-2
7.098621365E0,-1.426663280E0,-2.216019392E0,1.535477582E-3
7.103679229E0,-1.273797989E0,-2.206432104E0,5.160286650E-2
7.108737042E0,-1.104953766E0,-2.205366611E0,9.314814955E-2
7.113770948E0,-9.179999232E-1,-2.246912003E0,1.298997402E-1
7.118828813E0,-7.177304029E-1,-2.356634140E0,1.528028995E-1
7.123886625E0,-5.041450262E-1,-2.521749973E0,1.506723613E-1
7.128944490E0,-2.900271714E-1,-2.686333179E0,1.272365749E-1
7.134002354E0,-9.242077172E-2,-2.793924809E0,6.758182496E-2
7.139060167E0,8.920665830E-2,-2.817360401E0,-2.669400536E-2
7.144101156E0,2.628445923E-1,-2.763032198E0,-1.278940439E-1
7.149158969E0,4.444720447E-1,-2.659701586E0,-2.248330265E-1
7.154216833E0,6.527311206E-1,-2.518021584E0,-3.105867505E-1
7.159274698E0,8.817628026E-1,-2.334263563E0,-3.808941245E-1
7.164332510E0,1.128903866E0,-2.116949797E0,-4.384183586E-1
7.169390375E0,1.385632396E0,-1.883657098E0,-4.863552153E-1
7.174459229E0,1.644491434E0,-1.639711857E0,-5.396183729E-1
7.179517094E0,1.902285218E0,-1.397364378E0,-6.099257469E-1
7.184574958E0,2.124925137E0,-1.174191713E0,-7.057994604E-1
7.189632771E0,2.277257681E0,-9.643347859E-1,-8.133910894E-1
7.194690635E0,2.312944174E0,-7.523473501E-1,-9.087321758E-1
7.199748448E0,2.178720713E0,-5.137283206E-1,-9.385595322E-1
7.204807510E0,1.924123049E0,-2.362271696E-1,-8.868942857E-1
7.209865323E0,1.651948214E0,-3.382711112E-2,-7.734436989E-1
7.214923188E0,1.346750259E0,-5.140396208E-2,-5.944795012E-1
7.219981000E0,1.050607085E0,-3.459493220E-1,-3.281635940E-1
7.225038865E0,9.344933033E-1,-8.285136819E-1,1.005758531E-2
7.230096729E0,1.057531238E0,-1.302023172E0,3.813019097E-1
7.235178448E0,1.200276494E0,-1.612014890E0,6.875652075E-1
7.240236313E0,1.110261798E0,-1.679126501E0,8.478873372E-1
7.245294177E0,7.757690549E-1,-1.470334888E0,8.601378798E-1
7.250351990E0,3.198361993E-1,-1.060208440E0,7.056746483E-1
7.255409854E0,-9.987761825E-2,-6.420925260E-1,4.260429740E-1
7.260467667E0,-3.976187706E-1,-2.985450923E-1,1.091270968E-1
7.265499333E0,-5.707240105E-1,4.500238597E-2,-2.125824839E-1
7.270557198E0,-6.713914275E-1,3.177098632E-1,-4.890183508E-1
7.275615010E0,-7.550145984E-1,4.492699206E-1,-6.876899600E-1
7.280672823E0,-8.748567700E-1,4.402151704E-1,-7.579973936E-1
7.285730740E0,-1.035711527E0,3.145140409E-1,-7.031363249E-1
7.290788552E0,-1.220534801E0,8.761292696E-2,-5.651847124E-1
7.295871625E0,-1.459686399E0,-2.330313921E-1,-3.563930392E-1
7.300929490E0,-1.748372912E0,-5.297073126E-1,-1.257635057E-1
7.305987302E0,-2.014688969E0,-6.277114749E-1,1.197797284E-1
7.311045167E0,-2.102573156E0,-4.141261876E-1,3.674535155E-1
7.316103031E0,-1.789385438E0,2.042592913E-1,5.192535520E-1
7.321160844E0,-1.012808323E0,1.159800768E0,4.856977463E-1
7.326188344E0,5.138981342E-2,2.178192616E0,2.950155735E-1
7.331246208E0,1.153937578E0,3.053839207E0,3.828706965E-2
7.336304021E0,2.083912373E0,3.633342743E0,-2.493340820E-1
7.341361885E0,2.626131535E0,3.781946898E0,-5.401510596E-1
7.346419750E0,2.631990433E0,3.417093992E0,-8.091300726E-1
7.351477563E0,2.160078764E0,2.519609451E0,-1.022182703E0
7.356540427E0,1.517725110E0,1.335036635E0,-1.069054365E0
7.361598240E0,1.099076509E0,2.575224638E-1,-9.444184899E-1
7.366656104E0,1.090021729E0,-5.046736002E-1,-8.272395730E-1
7.371713969E0,1.373381853E0,-9.206589460E-1,-8.469468951E-1
7.376771781E0,1.692428231E0,-1.005879998E0,-9.374943376E-1
7.381829646E0,1.894828439E0,-7.645978332E-1,-9.779743552E-1
7.386874698E0,1.993897915E0,-2.383576930E-1,-9.231132865E-1
7.391932510E0,2.056748152E0,4.956088662E-1,-7.931510806E-1
7.396990427E0,2.126523018E0,1.370722890E0,-6.317636371E-1
7.402048240E0,2.253821850E0,2.346504211E0,-4.799636304E-1
7.407106104E0,2.496701956E0,3.388864517E0,-3.691762388E-1
7.412163917E0,2.891382217E0,4.446138382E0,-3.196414709E-1
7.417216469E0,3.375544548E0,5.352144718E0,-3.116520047E-1
7.422274073E0,3.834140301E0,5.935376644E0,-3.095214665E-1
7.427331625E0,4.167035103E0,6.104753494E0,-2.898141146E-1
7.432389281E0,4.344934464E0,5.928452492E0,-2.445403934E-1
7.437446833E0,4.390740395E0,5.497020721E0,-1.683740616E-1
7.442504438E0,4.304454327E0,4.868515015E0,-3.841190040E-2
7.447584698E0,4.107380867E0,4.089807510E0,1.352260411E-1
7.452642302E0,3.798986673E0,3.240260363E0,3.248429298E-1
7.457699906E0,3.426144361E0,2.365679026E0,4.830345809E-1
7.462757510E0,3.052236795E0,1.521457672E0,5.757125020E-1
7.467815115E0,2.753430367E0,8.274384737E-1,6.209862232E-1
7.472872719E0,2.595771551E0,2.426087856E-1,5.922240615E-1
7.477951885E0,2.567009211E0,-2.745766342E-1,4.617293179E-1
7.483009490E0,2.588314772E0,-6.021451354E-1,2.998092473E-1
7.488067094E0,2.629859924E0,-6.857683659E-1,1.794344783E-1
7.493124698E0,2.671937704E0,-6.442230940E-1,9.953972697E-2
7.498182302E0,2.700700045E0,-5.701872706E-1,6.119023263E-2
7.503239906E0,2.696971416E0,-4.604651332E-1,6.811445206E-2
7.508272979E0,2.665546179E0,-2.900229692E-1,1.069965735E-1
7.513330635E0,2.614413500E0,-9.401450306E-2,1.522702575E-1
7.518388240E0,2.552095652E0,6.843818724E-2,1.906197518E-1
7.523445792E0,2.476994753E0,1.781603396E-1,2.188492268E-1
7.528503396E0,2.377925158E0,2.537940443E-1,2.438829243E-1
7.533560948E0,2.268203020E0,3.533961773E-1,2.758408487E-1
7.538622510E0,2.171263933E0,4.961414933E-1,3.189840019E-1
7.543680115E0,2.087641001E0,7.065310478E-1,3.754429817E-1
7.548737719E0,2.032247066E0,1.008000612E0,4.462830126E-1
7.553795323E0,2.004017591E0,1.372853398E0,5.208514333E-1
7.558852927E0,2.010941744E0,1.761141896E0,5.623967648E-1
7.563910479E0,2.063672304E0,2.114276648E0,5.618640780E-1
7.568950740E0,2.165937662E0,2.393908501E0,5.144598484E-1
7.574008396E0,2.306019783E0,2.579264164E0,4.276408851E-1
7.579065948E0,2.459950447E0,2.667681217E0,3.024724126E-1
7.584123552E0,2.604826212E0,2.659158945E0,1.496071070E-1
7.589181208E0,2.715080976E0,2.562220097E0,-1.657400280E-2
7.594238760E0,2.767278910E0,2.424801111E0,-1.651782691E-1
7.599317302E0,2.748104334E0,2.285784245E0,-2.642477453E-1
7.604374906E0,2.640512466E0,2.181388617E0,-2.908793390E-1
7.609432563E0,2.444504261E0,2.079123259E0,-2.605193257E-1
7.614490115E0,2.183514357E0,1.921996832E0,-1.896793246E-1
7.619547719E0,1.909742117E0,1.697758794E0,-1.001971811E-1
7.624605323E0,1.671123028E0,1.431975603E0,-1.127681346E-3
7.629660167E0,1.508670330E0,1.166724920E0,1.011376157E-1
7.634717771E0,1.430373430E0,9.574006200E-1,2.044681758E-1
7.639775323E0,1.425047159E0,8.210468292E-1,3.014071584E-1
7.644832927E0,1.460200787E0,7.736425996E-1,3.802366555E-1
7.649890531E0,1.508670330E0,7.997416258E-1,4.532071948E-1
7.654948135E0,1.539030313E0,8.822994828E-1,5.267103910E-1
7.660015010E0,1.527845144E0,9.872279763E-1,6.092683077E-1
7.665072563E0,1.480973482E0,1.086297631E0,6.912935972E-1
7.670130167E0,1.399480820E0,1.152876496E0,7.695904970E-1
7.675187771E0,1.297215462E0,1.175247073E0,8.276473284E-1
7.680245375E0,1.191221833E0,1.177377582E0,8.702579141E-1
7.685302979E0,1.090021729E0,1.174181700E0,9.048789144E-1
7.690354854E0,1.002137542E0,1.150745988E0,9.176621437E-1
7.695412406E0,9.222427607E-1,1.115592241E0,9.187273979E-1
7.700470063E0,8.322280049E-1,1.074046969E0,9.139336944E-1
7.705527615E0,7.177121639E-1,1.030371189E0,9.016830921E-1
7.710585219E0,5.632489920E-1,9.733795524E-1,8.681273460E-1
7.715642823E0,3.805562258E-1,8.769732118E-1,8.026136756E-1
7.720703396E0,1.856130064E-1,7.363584638E-1,7.062072754E-1
7.725761000E0,1.304032281E-2,5.627204180E-1,5.735819936E-1
7.730818604E0,-1.158565655E-1,3.757666945E-1,4.132598042E-1
7.735876208E0,-2.032081634E-1,1.989329606E-1,2.470787168E-1
7.740933813E0,-2.623303235E-1,5.192659795E-2,9.048498422E-2
7.745991417E0,-3.289092779E-1,-5.193658918E-2,-4.746664315E-2
7.751048344E0,-4.274461269E-1,-1.158524007E-1,-1.694393158E-1
7.756105948E0,-5.584734678E-1,-1.387555599E-1,-2.770309448E-1
7.761163552E0,-7.198609114E-1,-1.286355704E-1,-3.579909503E-1
7.766221156E0,-9.403704405E-1,-8.922082186E-2,-3.862204552E-1
7.771278708E0,-1.249829531E0,-3.382711112E-2,-3.649151921E-1
7.776336365E0,-1.659423351E0,-6.662890315E-3,-3.313593566E-1
7.781395323E0,-2.121215343E0,-5.832817405E-2,-3.345551491E-1
7.786452875E0,-2.560103893E0,-2.000082135E-1,-4.000688791E-1
7.791510479E0,-2.944131374E0,-4.652588367E-1,-5.188457370E-1
7.796568083E0,-3.279156685E0,-8.567431569E-1,-6.551994681E-1
7.801625688E0,-3.586485386E0,-1.254619002E0,-7.473447919E-1
7.806683292E0,-3.827234745E0,-1.484715939E0,-7.702479362E-1
7.811743188E0,-3.916184187E0,-1.452758074E0,-7.638563514E-1
7.816800740E0,-3.833093643E0,-1.191235900E0,-7.750416398E-1
7.821858396E0,-3.648803234E0,-8.136000037E-1,-8.378921747E-1
7.826915948E0,-3.432554722E0,-4.556714594E-1,-9.513427615E-1
7.831973552E0,-3.268504143E0,-2.282377034E-1,-1.064793229E0
7.837031156E0,-3.219501972E0,-2.468798161E-1,-1.109534264E0
7.842163552E0,-3.256253719E0,-5.531430840E-1,-1.098881721E0
7.847221104E0,-3.299929380E0,-9.899010658E-1,-1.071184754E0
7.852278708E0,-3.328158855E0,-1.370200038E0,-1.014193177E0
7.857336313E0,-3.352659941E0,-1.655158043E0,-9.044710994E-1
7.862393917E0,-3.371834755E0,-1.921473980E0,-7.366921306E-1
7.867451521E0,-3.408053637E0,-2.186724424E0,-5.321615338E-1
7.872441313E0,-3.465045214E0,-2.417354107E0,-3.446751535E-1
7.877498865E0,-3.546537876E0,-2.603775263E0,-2.306919694E-1
7.882556469E0,-3.665314674E0,-2.769956350E0,-1.971361637E-1
7.887614073E0,-3.826169729E0,-3.002716541E0,-2.264309078E-1
7.892671677E0,-4.012058258E0,-3.275424004E0,-3.073909581E-1
7.897729281E0,-4.266655922E0,-3.279685020E0,-4.123193920E-1
7.902795479E0,-4.547352791E0,-2.921756506E0,-4.618541300E-1
7.907853083E0,-4.706077576E0,-2.374743462E0,-4.373531044E-1
7.912910688E0,-4.671988964E0,-1.732922435E0,-3.739699125E-1
7.917968292E0,-4.472784519E0,-1.031978965E0,-3.207067549E-1
7.923025896E0,-4.175575733E0,-3.129261434E-1,-2.988688350E-1
7.928083448E0,-3.838952541E0,3.944088221E-1,-3.276309371E-1
7.933156052E0,-3.515645266E0,1.035697460E0,-4.251025617E-1
7.938213604E0,-3.234415770E0,1.455411315E0,-5.854247212E-1
7.943271208E0,-3.021363020E0,1.502282977E0,-7.963469028E-1
7.948328813E0,-2.859975576E0,1.223183990E0,-1.001410127E0
7.953386417E0,-2.739600897E0,7.486089468E-1,-1.163330078E0
7.958444021E0,-2.709240675E0,1.627140194E-1,-1.282639623E0
7.963491104E0,-2.772624016E0,-4.961514771E-1,-1.370523930E0
7.968548708E0,-2.888205051E0,-1.089503169E0,-1.416330218E0
7.973606260E0,-3.018699884E0,-1.566208601E0,-1.410471320E0
7.978663865E0,-3.121497869E0,-1.947040319E0,-1.363599539E0
7.983721469E0,-3.172630310E0,-2.196844578E0,-1.265062690E0
7.988779125E0,-3.159314632E0,-2.219747782E0,-1.110599637E0
7.993852458E0,-3.088474512E0,-2.139320374E0,-9.396248460E-1
7.998910063E0,-2.968632460E0,-2.095111847E0,-7.931510806E-1
8.003967719E0,-2.813636780E0,-2.067415237E0,-6.898205280E-1
8.009025271E0,-2.644259691E0,-2.016282558E0,-6.035342216E-1
8.014082875E0,-2.483937502E0,-1.947040319E0,-5.279005170E-1
8.019140479E0,-2.330539465E0,-1.884189725E0,-4.623867869E-1
8.024224021E0,-2.184065819E0,-1.837318182E0,-4.080583453E-1
8.029281625E0,-2.031733036E0,-1.816012979E0,-3.707741201E-1
8.034339229E0,-1.883661389E0,-1.808023453E0,-3.436098993E-1
8.039396781E0,-1.722273946E0,-1.808556080E0,-3.212393522E-1
8.044454385E0,-1.553962231E0,-1.825067639E0,-3.015320003E-1
8.049512042E0,-1.370736957E0,-1.854894996E0,-2.802267373E-1
8.054531885E0,-1.178456903E0,-1.890581369E0,-2.551930547E-1
8.059589490E0,-9.883073568E-1,-1.933191895E0,-2.301593274E-1
8.064647094E0,-8.167998791E-1,-1.997640252E0,-2.056582868E-1
8.069704698E0,-6.468903422E-1,-2.081795931E0,-1.800919473E-1
8.074762302E0,-4.583387971E-1,-2.195246696E0,-1.619824618E-1
8.079819854E0,-2.500797808E-1,-2.326274157E0,-1.609172076E-1
8.084842094E0,-2.477652952E-2,-2.459964752E0,-1.731677353E-1
8.089899698E0,2.170382887E-1,-2.589394093E0,-2.029951215E-1
8.094957302E0,4.567225575E-1,-2.698051214E0,-2.589214742E-1
8.100014854E0,6.809605956E-1,-2.762499332E0,-3.292288482E-1
8.105072458E0,8.977417350E-1,-2.774217367E0,-4.059278071E-1
8.110130063E0,1.112924933E0,-2.714562654E0,-4.714415073E-1
8.115216990E0,1.334499836E0,-2.570219278E0,-5.247046947E-1
8.120274646E0,1.550748229E0,-2.355568647E0,-5.662499666E-1
8.125332198E0,1.763800979E0,-2.104699373E0,-6.205784082E-1
8.130389802E0,1.969396710E0,-1.843177199E0,-6.962121725E-1
8.135447406E0,2.160611391E0,-1.573132873E0,-7.904879451E-1
8.140504958E0,2.343303919E0,-1.288174868E0,-8.991448283E-1
8.145560427E0,2.500963211E0,-9.856400490E-1,-1.002475381E0
8.150618083E0,2.575531483E0,-6.665936708E-1,-1.073315263E0
8.155675635E0,2.444504261E0,-3.395577371E-1,-1.081304789E0
8.160733240E0,2.011474609E0,-7.643765211E-2,-9.950185418E-1
8.165790844E0,1.413861871E0,2.849080414E-2,-8.080648184E-1
8.170848396E0,9.499396086E-1,-9.294923395E-2,-5.321615338E-1
8.175906625E0,7.193101048E-1,-4.514103830E-1,-1.694393158E-1
8.180964229E0,6.596552730E-1,-8.748525977E-1,2.742429376E-1
8.186021833E0,7.219732404E-1,-1.148625255E0,7.355020046E-1
8.191079438E0,7.970743179E-1,-1.254619002E0,1.054548502E0
8.196137042E0,6.996026635E-1,-1.229052782E0,1.103017926E0
8.201194646E0,3.704362214E-1,-1.060741067E0,8.532136083E-1
8.206254125E0,-5.353864282E-2,-7.768484354E-1,4.835672081E-1
8.211311781E0,-4.396966994E-1,-5.105324984E-1,1.389544606E-1
8.216369333E0,-7.731240988E-1,-3.187850714E-1,-1.768961698E-1
8.221426938E0,-1.092170477E0,-1.701808274E-1,-4.469404817E-1
8.226484542E0,-1.425598025E0,-8.229660243E-2,-6.259047389E-1
8.231542146E0,-1.814419150E0,-5.832817405E-2,-7.015384436E-1
8.236576521E0,-2.194185734E0,-3.542500734E-2,-6.285679340E-1
8.241634125E0,-2.556375504E0,-3.999731503E-3,-3.723720312E-1
8.246691677E0,-2.929750204E0,3.008870035E-2,7.927059196E-3
8.251749281E0,-3.260514498E0,1.360824257E-1,4.095313847E-1
8.256806885E0,-3.349464178E0,4.796299040E-1,7.568073273E-1
8.261864490E0,-2.975024223E0,1.041023731E0,9.277821183E-1
8.266916156E0,-2.005634308E0,1.520925045E0,7.983525395E-1
8.271973760E0,-6.458250880E-1,1.808546305E0,3.839650750E-1
8.277031313E0,5.968047976E-1,2.045567274E0,-1.774287820E-1
8.282088969E0,1.298280835E0,2.273001194E0,-6.951468587E-1
8.287146521E0,1.469788194E0,2.467944145E0,-1.077576399E0
8.292204177E0,1.539563060E0,2.507359028E0,-1.330043793E0
8.297271729E0,1.860739946E0,2.174996853E0,-1.474387050E0
8.302329333E0,2.310813427E0,1.625853539E0,-1.528182864E0
8.307386885E0,2.644773722E0,1.071383834E0,-1.485572338E0
8.312444490E0,2.720939875E0,5.142509341E-1,-1.287965894E0
8.317502094E0,2.483918667E0,-5.033869296E-2,-9.279069304E-1
8.322559698E0,2.031181812E0,-4.279745817E-1,-4.788983762E-1
8.327642510E0,1.613066196E0,-3.693851233E-1,-9.060981125E-2
8.332700115E0,1.440493464E0,1.637792736E-1,1.464113146E-1
8.337757719E0,1.583238840E0,1.074046969E0,2.364260852E-1
8.342815323E0,2.074325085E0,2.260750532E0,2.044681758E-1
8.347872927E0,2.847173691E0,3.536403656E0,8.462603390E-2
8.352930479E0,3.685003519E0,4.656527996E0,-7.090243697E-2
8.357984750E0,4.355586529E0,5.430974007E0,-2.029951215E-1
8.363042354E0,4.769441605E0,5.826719761E0,-2.818246186E-1
8.368099958E0,4.929231167E0,5.842165947E0,-3.180435598E-1
8.373157563E0,4.873304844E0,5.543359280E0,-3.031299114E-1
8.378215167E0,4.648534298E0,5.036293983E0,-2.381488234E-1
8.383272771E0,4.317237377E0,4.417908669E0,-1.316224635E-1
8.388330479E0,3.944395065E0,3.755315304E0,1.002845820E-3
8.393388083E0,3.588597298E0,3.125211716E0,1.219102591E-1
8.398445688E0,3.282866478E0,2.612287521E0,2.135229111E-1
8.403503292E0,3.088988543E0,2.240510702E0,2.225776464E-1
8.408560896E0,3.004832745E0,1.982716799E0,1.421502531E-1
8.413618448E0,3.013887405E0,1.741967320E0,-5.921366625E-3
8.418673344E0,3.116685390E0,1.437301874E0,-2.365509272E-1
8.423731104E0,3.250908375E0,1.114526987E0,-4.954099655E-1
8.428788917E0,3.345184326E0,9.004089832E-1,-6.749068499E-1
8.433846729E0,3.356902361E0,8.551353216E-1,-7.175173759E-1
8.438904542E0,3.285529613E0,9.206489921E-1,-6.504058242E-1
8.443962354E0,3.148110628E0,1.037827969E0,-5.273678303E-1
8.449014698E0,2.974472761E0,1.183769107E0,-3.808941245E-1
8.454072563E0,2.794975758E0,1.340895534E0,-2.509319782E-1
8.459130323E0,2.610685110E0,1.521990299E0,-1.438729912E-1
8.464188135E0,2.441840887E0,1.682845116E0,-4.906453937E-2
8.469245948E0,2.306019783E0,1.786175609E0,4.734181240E-2
8.474303813E0,2.191504002E0,1.861809373E0,1.602597386E-1
8.479350219E0,2.104685068E0,1.949160933E0,3.014071584E-1
8.484408031E0,2.058346033E0,2.105221987E0,4.681209028E-1
8.489465844E0,2.054617643E0,2.309752703E0,6.364325285E-1
8.494523656E0,2.075922966E0,2.539316893E0,7.786452174E-1
8.499581417E0,2.109478712E0,2.763022423E0,8.638662696E-1
8.504639281E0,2.157415628E0,2.944117069E0,8.809104562E-1
8.509707927E0,2.229320765E0,3.060763597E0,8.404304981E-1
8.514765688E0,2.315607309E0,3.099645615E0,7.616009712E-1
8.519823552E0,2.413078785E0,3.051708698E0,6.593357325E-1
8.524881365E0,2.518539906E0,2.926007748E0,5.421566963E-1
8.529939125E0,2.605358839E0,2.749706507E0,4.244450927E-1
8.534996990E0,2.649034739E0,2.555295944E0,3.243103027E-1
8.540096938E0,2.622403145E0,2.369940042E0,2.492092401E-1
8.545154750E0,2.520137787E0,2.171801090E0,2.044681758E-1
8.550212563E0,2.348097801E0,1.946497798E0,2.124576569E-1
8.555270375E0,2.116402864E0,1.695095658E0,2.497418672E-1
8.560328135E0,1.870327353E0,1.433040738E0,2.982113361E-1
8.565385948E0,1.666862011E0,1.184834480E0,3.413545489E-1
8.570423083E0,1.531573534E0,9.909564257E-1,3.823671639E-1
8.575480896E0,1.454341888E0,8.673858643E-1,4.223145545E-1
8.580538708E0,1.417057633E0,8.455479145E-1,4.441524446E-1
8.585596521E0,1.402676702E0,9.366279840E-1,4.521419406E-1
8.590654333E0,1.402676702E0,1.107070208E0,4.553377330E-1
8.595712146E0,1.415459752E0,1.353146076E0,4.564029872E-1
8.600755688E0,1.421318769E0,1.650887132E0,4.691861570E-1
8.605813448E0,1.410133481E0,1.934779882E0,4.894261658E-1
8.610871260E0,1.381904006E0,2.118537903E0,5.117967129E-1
8.615929073E0,1.336630225E0,2.161148310E0,5.469503999E-1
8.620986885E0,1.272181749E0,2.111080885E0,6.087356806E-1
8.626044698E0,1.189091325E0,2.004554749E0,6.833041310E-1
8.631116938E0,1.091619611E0,1.863407254E0,7.573398948E-1
8.636174750E0,9.850933552E-1,1.684442997E0,8.319084048E-1
8.641232563E0,8.759038448E-1,1.463400841E0,8.846389055E-1
8.646290375E0,7.597900629E-1,1.208802819E0,8.995526433E-1
8.651348188E0,6.229037046E-1,9.238447547E-1,8.729210496E-1
8.656406000E0,4.593857229E-1,6.202446818E-1,8.244515657E-1
8.661458396E0,2.825519741E-1,3.368845880E-1,7.573398948E-1
8.666516208E0,1.126424521E-1,1.185055599E-1,6.811736226E-1
8.671574021E0,-2.637442574E-2,-6.130258553E-3,6.071377993E-1
8.676631833E0,-1.206502542E-1,-3.329447657E-2,5.346998572E-1
8.681689646E0,-1.824355274E-1,3.457113169E-3,4.580008984E-1
8.686747458E0,-2.394271195E-1,5.458975583E-2,3.599966466E-1
8.691840948E0,-3.060061038E-1,9.134135395E-2,2.348281890E-1
8.696898760E0,-4.146629870E-1,1.190382019E-1,8.835446090E-2
8.701956521E0,-5.909640193E-1,1.366150528E-1,-7.036980242E-2
8.707014333E0,-8.189304471E-1,1.153097749E-1,-2.290940732E-1
8.712072146E0,-1.082583070E0,5.512239039E-2,-3.595888615E-1
8.717129958E0,-1.387248516E0,-5.064995028E-3,-4.527994394E-1
8.722172823E0,-1.749970794E0,-1.305447146E-2,-5.289657712E-1
8.727230583E0,-2.131867886E0,1.410974935E-2,-6.088604927E-1
8.732288344E0,-2.512699604E0,-5.597626790E-3,-6.812984347E-1
8.737346156E0,-2.877019644E0,-1.334292442E-1,-7.404205799E-1
8.742403969E0,-3.207784176E0,-3.885598481E-1,-7.713131905E-1
8.747461781E0,-3.543874741E0,-7.555431128E-1,-7.526710629E-1
8.752519594E0,-3.877835035E0,-1.149690628E0,-7.143215537E-1
8.757548396E0,-4.119116783E0,-1.404288650E0,-6.892879009E-1
8.762606156E0,-4.165455818E0,-1.431452751E0,-7.196479440E-1
8.767663969E0,-4.003003597E0,-1.237574816E0,-8.160542250E-1
8.772721781E0,-3.732959032E0,-9.281157851E-1,-9.513427615E-1
8.777779594E0,-3.497003078E0,-6.644631028E-1,-1.067988992E0
8.782837406E0,-3.349464178E0,-5.744483471E-1,-1.128709078E0
8.787875896E0,-3.301527262E0,-6.889641881E-1,-1.125513315E0
8.792933656E0,-3.310581923E0,-9.190610647E-1,-1.093555450E0
8.797991521E0,-3.353725195E0,-1.097492695E0,-1.018454313E0
8.803049333E0,-3.388878822E0,-1.201355815E0,-8.767742515E-1
8.808107146E0,-3.404325247E0,-1.314273834E0,-6.828963757E-1
8.813164906E0,-3.405923128E0,-1.533717990E0,-4.671804607E-1
8.818248500E0,-3.416043282E0,-1.870341301E0,-2.642477453E-1
8.823306260E0,-3.466643095E0,-2.355568647E0,-1.406771988E-1
8.828364073E0,-3.593942165E0,-2.981411219E0,-1.220350787E-1
8.833421885E0,-3.861855984E0,-3.524163008E0,-1.811572164E-1
8.838479698E0,-4.269319057E0,-3.746270418E0,-2.503993511E-1
8.843537510E0,-4.684239388E0,-3.653592348E0,-2.828898728E-1
8.848578760E0,-5.003285885E0,-3.263173580E0,-2.578561902E-1
8.853636521E0,-5.171064854E0,-2.600579500E0,-1.582540423E-1
8.858694333E0,-5.130584717E0,-1.800566554E0,-1.284558047E-2
8.863752146E0,-4.888769627E0,-9.499537349E-1,1.128555238E-1
8.868809958E0,-4.545222282E0,-8.069870621E-2,1.714450121E-1
8.873867771E0,-4.180902004E0,6.660510302E-1,1.245734170E-1
8.878935271E0,-3.842681170E0,1.102809072E0,-9.649788961E-3
8.883993083E0,-3.532156944E0,1.183769107E0,-1.896793246E-1
8.889050896E0,-3.260514498E0,9.765753746E-1,-3.707741201E-1
8.894108708E0,-3.078354359E0,5.872215629E-1,-5.390857458E-1
8.899166521E0,-3.010710478E0,1.254297942E-1,-6.642541885E-1
8.904224333E0,-3.031482935E0,-3.635261655E-1,-7.478774190E-1
8.909279333E0,-3.101790428E0,-8.801789880E-1,-8.213806152E-1
8.914337146E0,-3.179021835E0,-1.369667530E0,-8.794374466E-1
8.919394958E0,-3.239209414E0,-1.728661299E0,-8.698500991E-1
8.924452771E0,-3.250927210E0,-1.919343352E0,-7.734436989E-1
8.929510583E0,-3.194468260E0,-1.935855031E0,-6.179152727E-1
8.934568396E0,-3.089539766E0,-1.770206571E0,-4.559952021E-1
8.939627042E0,-2.956381798E0,-1.612014890E0,-3.127172589E-1
8.944684854E0,-2.802451372E0,-1.578991771E0,-2.274961919E-1
8.949742667E0,-2.643194437E0,-1.613080263E0,-2.035277635E-1
8.954800479E0,-2.497785807E0,-1.638646483E0,-2.077888101E-1
8.959858292E0,-2.383270264E0,-1.662082314E0,-2.109845877E-1
8.964916104E0,-2.284200668E0,-1.707888722E0,-2.088540643E-1
8.969972094E0,-2.190989971E0,-1.795240283E0,-1.944730133E-1
8.975029906E0,-2.095116377E0,-1.913484573E0,-1.529277414E-1
8.980087719E0,-1.981132865E0,-2.034391880E0,-1.001971811E-1
8.985145531E0,-1.835724473E0,-2.102568626E0,-4.586874694E-2
8.990203344E0,-1.675934911E0,-2.110558271E0,1.112284884E-2
8.995261156E0,-1.510819077E0,-2.103633881E0,6.332075596E-2
9.000319542E0,-1.346768498E0,-2.069545507E0,1.192471012E-1
9.005377354E0,-1.178456903E0,-2.017880440E0,1.751734316E-1
9.010435167E0,-9.957641363E-1,-1.977400303E0,2.167187035E-1
9.015492979E0,-7.944293618E-1,-1.990716100E0,2.380239666E-1
9.020550792E0,-5.675282478E-1,-2.052501440E0,2.316323966E-1
9.025608604E0,-3.203871846E-1,-2.147310019E0,2.023376524E-1
9.030665427E0,-6.738708168E-2,-2.248509884E0,1.272365749E-1
9.035723240E0,1.914719641E-1,-2.321480274E0,2.071022056E-2
9.040781052E0,4.561899304E-1,-2.334796190E0,-1.129803509E-1
9.045838865E0,7.246363759E-1,-2.265554190E0,-2.583888173E-1
9.050896677E0,1.005865932E0,-2.124406576E0,-4.037972987E-1
9.055954490E0,1.289758682E0,-1.923604488E0,-5.390857458E-1
9.061009750E0,1.562466145E0,-1.676995993E0,-6.583952308E-1
9.066067563E0,1.829314590E0,-1.396299124E0,-7.670521736E-1
9.071125375E0,2.074857712E0,-1.111341119E0,-8.778395057E-1
9.076183188E0,2.298563004E0,-8.333073854E-1,-1.005671144E0
9.081241000E0,2.487114429E0,-5.605999231E-1,-1.147351146E0
9.086298813E0,2.622935772E0,-2.820335031E-1,-1.276247978E0
9.091387823E0,2.662350416E0,-9.326049127E-3,-1.366795421E0
9.096445635E0,2.537714720E0,2.213035077E-1,-1.371589065E0
9.101503500E0,2.225059748E0,3.709730208E-1,-1.251214385E0
9.106561260E0,1.810672522E0,3.619183004E-1,-1.021117449E0
9.111619073E0,1.377642989E0,1.041245088E-1,-7.212458253E-1
9.116676885E0,9.845606685E-1,-4.221156538E-1,-3.595888615E-1
9.121710167E0,7.315606475E-1,-1.040501118E0,5.533128604E-2
9.126767979E0,6.900153756E-1,-1.534250736E0,4.404240549E-1
9.131825740E0,7.347563505E-1,-1.870341301E0,6.822388172E-1
9.136883604E0,6.559268832E-1,-2.031196117E0,7.717210054E-1
9.141941365E0,4.087857008E-1,-1.956627727E0,7.440240979E-1
9.146999229E0,4.925928265E-2,-1.704160213E0,6.241820455E-1
9.152054281E0,-3.203871846E-1,-1.421332836E0,4.659903646E-1
9.157112094E0,-6.064103842E-1,-1.206682205E0,2.811671495E-1
9.162169906E0,-7.795156837E-1,-9.771179557E-1,5.905970931E-2
9.167227719E0,-8.370398879E-1,-6.671262383E-1,-2.029951215E-1
9.172285531E0,-8.381052017E-1,-3.374271989E-1,-4.570604861E-1
9.177343344E0,-8.487578034E-1,-5.619764328E-2,-6.445468664E-1
9.182404698E0,-9.132062793E-1,1.062550396E-1,-7.404205799E-1
9.187462510E0,-1.054353595E0,1.339519024E-1,-7.548016310E-1
9.192520271E0,-1.265275836E0,3.488238156E-2,-6.844942570E-1
9.197578135E0,-1.542776942E0,-1.153197736E-1,-5.135194659E-1
9.202635896E0,-1.837854981E0,-1.771050394E-1,-2.903467417E-1
9.207693708E0,-2.042918444E0,-6.205659360E-2,-4.000979662E-2
9.212766625E0,-1.984328747E0,3.246340752E-1,2.167187035E-1
9.217824438E0,-1.556092739E0,9.227795005E-1,3.823671639E-1
9.222882198E0,-7.853745818E-1,1.479912400E0,3.813019097E-1
9.227940063E0,2.149077654E-1,1.936377764E0,1.906197518E-1
9.232997875E0,1.232234359E0,2.381658077E0,-1.673087925E-1
9.238055635E0,1.948624134E0,2.716683388E0,-5.683804750E-1
9.243105844E0,2.129718781E0,2.786990881E0,-9.092648029E-1
9.248163656E0,1.849022031E0,2.519609451E0,-1.155340672E0
9.253221417E0,1.504409313E0,1.952356815E0,-1.212332249E0
9.258279281E0,1.395752311E0,1.165659666E0,-1.104740620E0
9.263337042E0,1.499615669E0,3.209056556E-1,-9.572017193E-1
9.268394854E0,1.699885130E0,-3.581998348E-1,-8.038037419E-1
9.273431938E0,1.852750421E0,-7.150631547E-1,-6.125889421E-1
9.278489750E0,1.875653625E0,-6.804420352E-1,-3.899488747E-1
9.283547563E0,1.809074640E0,-2.554019094E-1,-1.721024811E-1
9.288605375E0,1.764866233E0,4.615204334E-1,1.804706268E-2
9.293663188E0,1.823455691E0,1.394691229E0,1.437481493E-1
9.298720948E0,2.035442829E0,2.510022402E0,1.794344783E-1
9.303769073E0,2.452493668E0,3.744662762E0,1.480092108E-1
9.308826885E0,3.052236795E0,4.951072693E0,6.864708662E-2
9.313884698E0,3.735603571E0,5.929517746E0,-7.463086396E-2
9.318942510E0,4.352390766E0,6.528728008E0,-2.674435675E-1
9.324000323E0,4.780626774E0,6.675202370E0,-4.464078248E-1
9.329058083E0,4.995277405E0,6.445105076E0,-5.699783564E-1
9.334122042E0,4.991549015E0,5.965203762E0,-6.136541963E-1
9.339179802E0,4.818443775E0,5.338829041E0,-5.753047466E-1
9.344237667E0,4.511115551E0,4.636820316E0,-4.714415073E-1
9.349295479E0,4.103652000E0,3.904452324E0,-2.493340820E-1
9.354353292E0,3.658904552E0,3.139592886E0,2.443864383E-2
9.359411052E0,3.240255833E0,2.467411757E0,2.699818909E-1
9.364476469E0,2.895642996E0,1.996032476E0,4.494787753E-1
9.369534229E0,2.677796841E0,1.599221945E0,4.974156320E-1
9.374592094E0,2.594173670E0,1.152343869E0,3.466808498E-1
9.379649854E0,2.595238686E0,7.251731157E-1,5.373338982E-2
9.384707719E0,2.628262043E0,4.972067475E-1,-2.109845877E-1
9.389765479E0,2.655426264E0,4.790972769E-1,-3.579909503E-1
9.394828292E0,2.664480925E0,5.909499526E-1,-3.894162476E-1
9.399886156E0,2.651697874E0,7.406194806E-1,-3.393488526E-1
9.404943917E0,2.610152721E0,8.897563219E-1,-2.408119738E-1
9.410001729E0,2.547302008E0,1.055937529E0,-1.108498201E-1
9.415059542E0,2.469537973E0,1.251413465E0,3.615654260E-2
9.420117354E0,2.384849310E0,1.452748179E0,1.938155293E-1
9.425183448E0,2.310280800E0,1.610939741E0,3.498766422E-1
9.430241260E0,2.237843037E0,1.716400862E0,4.968830049E-1
9.435299073E0,2.170198679E0,1.798958898E0,6.204535365E-1
9.440356938E0,2.138773441E0,1.906550407E0,7.269799113E-1
9.445414750E0,2.137708187E0,2.073796749E0,8.042114973E-1
9.450472563E0,2.163274527E0,2.303361177E0,8.324409723E-1
9.455508135E0,2.211743832E0,2.553698063E0,8.153967857E-1
9.460565948E0,2.268203020E0,2.800839186E0,7.450894117E-1
9.465623813E0,2.340641022E0,3.005369663E0,6.364325285E-1
9.470681625E0,2.442373514E0,3.116689682E0,5.213840604E-1
9.475739490E0,2.569672585E0,3.117754936E0,4.180535078E-1
9.480797302E0,2.700167179E0,3.030403376E0,3.205818832E-1
9.485860792E0,2.804030657E0,2.870081425E0,2.412197739E-1
9.490918656E0,2.861554623E0,2.671409607E0,1.852934211E-1
9.495976469E0,2.851434946E0,2.445573807E0,1.298997402E-1
9.501034281E0,2.767278910E0,2.178192616E0,7.503866404E-2
9.506092146E0,2.605358839E0,1.835177779E0,3.615654260E-2
9.511149958E0,2.378457785E0,1.437301874E0,3.828706965E-2
9.516220583E0,2.116935492E0,1.040491223E0,9.101761132E-2
9.521278396E0,1.857544065E0,6.852257252E-1,1.863586903E-1
9.526336260E0,1.646089435E0,4.082572460E-1,2.960808277E-1
9.531394073E0,1.512398720E0,2.649793327E-1,4.068682492E-1
9.536451885E0,1.460200787E0,2.862845957E-1,5.155251026E-1
9.541509750E0,1.477777719E0,4.881520271E-1,6.140619516E-1
9.546559802E0,1.515594482E0,8.620594740E-1,6.838367581E-1
9.551617615E0,1.537965059E0,1.322785974E0,7.333715558E-1
9.556675479E0,1.524116635E0,1.765403032E0,7.701231241E-1
9.561733292E0,1.459668279E0,2.091906309E0,7.962220311E-1
9.566791156E0,1.356870294E0,2.269272566E0,8.111357689E-1
9.571859594E0,1.231169224E0,2.282588482E0,8.212557435E-1
9.576917458E0,1.116653323E0,2.148365259E0,8.319084048E-1
9.581975271E0,1.030367017E0,1.938508272E0,8.564094305E-1
9.587033135E0,9.707122445E-1,1.696160913E0,8.707904816E-1
9.592090948E0,9.275690913E-1,1.442628145E0,8.841062784E-1
9.597148813E0,8.806974888E-1,1.202943802E0,8.958241940E-1
9.602229438E0,8.098574281E-1,9.717816710E-1,8.995526433E-1
9.607287250E0,6.910805702E-1,7.358257771E-1,8.803778887E-1
9.612345063E0,5.195731521E-1,4.993373454E-1,8.191251755E-1
9.617402927E0,3.123793602E-1,2.782950997E-1,7.179251909E-1
9.622460740E0,1.153056175E-1,1.035918817E-1,5.852999091E-1
9.627518552E0,-2.637442574E-2,2.742554247E-2,4.452177286E-1
9.632576365E0,-1.025407687E-1,5.991607159E-2,3.141903281E-1
9.637594542E0,-1.360965669E-1,1.770950705E-1,2.018050253E-1
9.642652354E0,-1.696523577E-1,3.187751174E-1,1.107249856E-1
9.647710219E0,-2.479492277E-1,4.167793691E-1,1.804706268E-2
9.652768031E0,-4.034777284E-1,4.503351450E-1,-8.048980683E-2
9.657825844E0,-6.399661303E-1,4.034635723E-1,-1.859509051E-1
9.662883708E0,-9.425010085E-1,2.932087779E-1,-2.786288261E-1
9.667961260E0,-1.281254888E0,1.563224345E-1,-3.446751535E-1
9.673019073E0,-1.647172809E0,4.766554385E-2,-3.936772943E-1
9.678076938E0,-2.036526918E0,-5.406711996E-2,-4.639846683E-1
9.683134750E0,-2.438131332E0,-1.882903129E-1,-5.513362885E-1
9.688192563E0,-2.862638712E0,-3.518082798E-1,-6.184478402E-1
9.693250375E0,-3.293537855E0,-5.515452027E-1,-6.466773748E-1
9.698292354E0,-3.668510437E0,-8.002842069E-1,-6.498731375E-1
9.703350167E0,-3.960392714E0,-1.096427441E0,-6.360247135E-1
9.708408031E0,-4.208066463E0,-1.435181141E0,-6.157847047E-1
9.713465844E0,-4.333235264E0,-1.703627586E0,-6.248394847E-1
9.718523656E0,-4.217654228E0,-1.743574977E0,-6.962121725E-1
9.723581521E0,-3.920445204E0,-1.551294923E0,-8.176521659E-1
9.728640219E0,-3.634422064E0,-1.261010647E0,-9.273743033E-1
9.733698031E0,-3.459186316E0,-1.059675813E0,-9.918227196E-1
9.738755844E0,-3.393672466E0,-1.049555779E0,-1.006203771E0
9.743813708E0,-3.408586264E0,-1.188040018E0,-9.907574654E-1
9.748871521E0,-3.469838858E0,-1.355286360E0,-9.417553544E-1
9.753929385E0,-3.528961182E0,-1.460214853E0,-8.389574289E-1
9.758986365E0,-3.563581944E0,-1.525195956E0,-6.871573925E-1
9.764044229E0,-3.567310572E0,-1.655690670E0,-5.065952539E-1
9.769102042E0,-3.551331520E0,-1.944377065E0,-3.223046362E-1
9.774159906E0,-3.559853792E0,-2.430670023E0,-1.886140555E-1
9.779217719E0,-3.653064251E0,-3.085274220E0,-1.454708874E-1
9.784275531E0,-3.897009373E0,-3.695137739E0,-1.710372120E-1
9.789333396E0,-4.292755127E0,-4.029098511E0,-2.051256448E-1
9.794391208E0,-4.738035202E0,-4.043479443E0,-2.205719650E-1
9.799449021E0,-5.131649971E0,-3.792076826E0,-1.870161593E-1
9.804506885E0,-5.415009975E0,-3.286076546E0,-8.581612259E-2
9.809564698E0,-5.511416435E0,-2.585133314E0,7.397340238E-2
9.814622563E0,-5.377725601E0,-1.740911722E0,2.561334372E-1
9.819680792E0,-5.089039326E0,-7.454231381E-1,4.089987576E-1
9.824738656E0,-4.733774185E0,1.882803291E-1,4.952851236E-1
9.829796521E0,-4.362529278E0,7.960131764E-1,4.825019240E-1
9.834854333E0,-4.003003597E0,9.749774337E-1,3.781061172E-1
9.839912146E0,-3.704196930E0,8.684511185E-1,2.481439859E-1
9.844970010E0,-3.503394842E0,6.143857241E-1,1.251060367E-1
9.850025844E0,-3.392607450E0,1.877477020E-1,-1.870452985E-2
9.855083656E0,-3.346801043E0,-4.135935605E-1,-2.056582868E-1
9.860141469E0,-3.355323315E0,-1.055414677E0,-4.181783497E-1
9.865199333E0,-3.395803213E0,-1.579524398E0,-6.019363403E-1
9.870257198E0,-3.440011501E0,-1.893244505E0,-7.052668929E-1
9.875315010E0,-3.445337772E0,-1.968878150E0,-6.972773671E-1
9.880373969E0,-3.377161026E0,-1.850633979E0,-6.019363403E-1
9.885431781E0,-3.247199059E0,-1.661017060E0,-4.741047025E-1
9.890489594E0,-3.076224089E0,-1.554490685E0,-3.729046583E-1
9.895547406E0,-2.894596577E0,-1.544903398E0,-3.025972545E-1
9.900605271E0,-2.732144117E0,-1.571534872E0,-2.573235631E-1
9.905663135E0,-2.586735487E0,-1.605623364E0,-2.354856580E-1
9.910725427E0,-2.456240654E0,-1.649299264E0,-2.317572385E-1
9.915783292E0,-2.318821669E0,-1.704160213E0,-2.227025032E-1
9.920841156E0,-2.169684887E0,-1.772869825E0,-2.125824839E-1
9.925898969E0,-2.006166935E0,-1.853829741E0,-2.013972253E-1
9.930956781E0,-1.836789727E0,-1.945974946E0,-2.056582868E-1
9.936014646E0,-1.657292843E0,-2.040250778E0,-1.960709095E-1
9.941069229E0,-1.467143297E0,-2.124939442E0,-1.955382675E-1
9.946127094E0,-1.270602107E0,-2.188855171E0,-1.997993290E-1
9.951184906E0,-1.075126290E0,-2.227204800E0,-1.822224706E-1
9.956242771E0,-8.801831007E-1,-2.267684698E0,-1.449382603E-1
9.961300583E0,-7.022840977E-1,-2.367819548E0,-9.806665033E-2
9.966358448E0,-5.227872133E-1,-2.512695312E0,-6.131506711E-2
9.971413188E0,-3.299745619E-1,-2.689528942E0,-4.640138149E-2
9.976471052E0,-1.265092045E-1,-2.864232063E0,-6.078243628E-2
9.981528865E0,7.961928844E-2,-2.991531134E0,-1.119150817E-1
9.986586729E0,2.734972537E-1,-3.057577610E0,-1.864835322E-1
9.991644542E0,4.695057273E-1,-3.044261694E0,-2.690414488E-1
9.996702406E0,6.782974601E-1,-2.952649117E0,-3.515993953E-1
1.000176027E1,9.083943963E-1,-2.792326689E0,-4.261678457E-1
1.000681814E1,1.157666087E0,-2.559566736E0,-4.890183508E-1
1.001187595E1,1.415459752E0,-2.274076223E0,-5.406836271E-1
1.001693376E1,1.675384045E0,-1.966215134E0,-5.918162465E-1
1.002199157E1,1.924123049E0,-1.659419179E0,-6.658520699E-1
1.002704944E1,2.150491238E0,-1.365939140E0,-7.691826820E-1
1.003214506E1,2.344901800E0,-1.087905288E0,-8.932858706E-1
1.003720293E1,2.493506193E0,-8.205242157E-1,-1.010464787E0
1.004226074E1,2.533453703E0,-5.701872706E-1,-1.079706907E0
1.004731860E1,2.323596716E0,-3.896251023E-1,-1.070119619E0
1.005237642E1,1.763268352E0,-3.512756228E-1,-9.811701179E-1
1.005743428E1,1.069781780E0,-4.748462141E-1,-8.038037419E-1
1.006245428E1,5.547268391E-1,-7.496841550E-1,-4.554625750E-1
1.006751215E1,4.631141424E-1,-1.170463204E0,8.196288347E-2
1.007256996E1,8.364890218E-1,-1.541707516E0,6.428241134E-1
1.007762782E1,1.227973461E0,-1.759554029E0,9.671968818E-1
1.008268569E1,1.160861850E0,-1.838916063E0,1.014068484E0
1.008774350E1,7.017332315E-1,-1.565143347E0,9.496200085E-1
1.009283199E1,1.749603748E-1,-9.552800655E-1,7.392304540E-1
1.009788985E1,-2.554061115E-1,-3.241114020E-1,4.127271771E-1
1.010294767E1,-5.387661457E-1,1.158424094E-1,6.811445206E-2
1.010800553E1,-7.129367590E-1,3.645814359E-1,-2.812919915E-1
1.011306334E1,-8.498231173E-1,4.045288265E-1,-5.971426368E-1
1.011812116E1,-9.840462804E-1,2.713708878E-1,-8.171195388E-1
1.012314095E1,-1.156618953E0,1.270276755E-1,-8.735784888E-1
1.012819881E1,-1.396835923E0,5.725292116E-2,-7.484100461E-1
1.013325663E1,-1.711088538E0,-3.999731503E-3,-4.831594229E-1
1.013831449E1,-2.122813225E0,-6.525238603E-2,-1.257635057E-1
1.014337230E1,-2.602714300E0,-1.137218773E-1,2.854281962E-1
1.014843017E1,-2.959577560E0,-1.174502969E-1,7.147293687E-1
1.015351418E1,-2.913238764E0,8.867818862E-2,1.141367435E0
1.015857199E1,-2.330007076E0,6.628552079E-1,1.430586576E0
1.016362980E1,-1.309484243E0,1.458074450E0,1.358148575E0
1.016868767E1,-9.614919126E-2,2.161680937E0,9.512178898E-1
1.017374548E1,9.920175672E-1,2.805100203E0,4.276408851E-1
1.017880334E1,1.690297723E0,3.201910734E0,-1.172413975E-1
1.018383558E1,1.886306286E0,3.124146700E0,-6.541342139E-1
1.018889340E1,1.693493605E0,2.744912624E0,-1.129241705E0
1.019395126E1,1.549150348E0,2.320405483E0,-1.461071253E0
1.019900902E1,1.727049351E0,1.875657797E0,-1.620328069E0
1.020406689E1,2.054085016E0,1.326514482E0,-1.664003968E0
1.020912470E1,2.262344122E0,7.059984207E-1,-1.636839747E0
1.021419162E1,2.255952358E0,2.042592913E-1,-1.519660711E0
1.021924949E1,2.108413458E0,1.197922044E-2,-1.285302877E0
1.022430735E1,1.974190474E0,1.856171638E-1,-9.678543210E-1
1.022936517E1,1.942232609E0,6.548657417E-1,-6.466773748E-1
1.023442298E1,2.046095610E0,1.304143906E0,-3.851551712E-1
1.023948079E1,2.324661970E0,2.088710546E0,-2.067235410E-1
1.024453439E1,2.741712570E0,2.951573849E0,-1.044582352E-1
1.024959225E1,3.223744392E0,3.762772083E0,-8.475086093E-2
1.025465006E1,3.672752857E0,4.395005703E0,-1.577214152E-1
1.025970788E1,4.005115032E0,4.766249657E0,-2.631825209E-1
1.026476579E1,4.201655865E0,4.865319252E0,-3.350877762E-1
1.026982360E1,4.266104698E0,4.693811893E0,-3.521319926E-1
1.027486579E1,4.226157665E0,4.283153057E0,-3.132498860E-1
1.027992360E1,4.111108780E0,3.729216337E0,-2.306919694E-1
1.028498147E1,3.951851845E0,3.145452023E0,-1.246982440E-1
1.029003928E1,3.761169672E0,2.623472691E0,6.861795206E-3
1.029509709E1,3.598184347E0,2.226662159E0,1.378892064E-1
1.030015496E1,3.479940176E0,2.031186342E0,2.145881802E-1
1.030522058E1,3.403774023E0,1.947563052E0,2.550681829E-1
1.031027834E1,3.413893938E0,1.807480931E0,2.364260852E-1
