"Time (s)","Gyroscope x (rad/s)","Gyroscope y (rad/s)","Gyroscope z (rad/s)"
6.178740000E-2,6.895516533E-3,1.636878005E-5,-2.150191227E-3
6.687859800E-2,7.960779592E-3,-1.581526478E-3,2.643494401E-3
7.191318100E-2,-5.613282556E-4,1.636878005E-5,3.176126163E-3
7.696854600E-2,-1.093959552E-3,1.614264096E-3,1.045599231E-3
8.202510800E-2,2.634462435E-3,5.490005715E-4,2.110862639E-3
8.715292100E-2,1.569198794E-3,1.081632334E-3,5.129674682E-4
9.213198300E-2,5.039352691E-4,1.636878005E-5,1.578230876E-3
9.719812900E-2,2.634462435E-3,2.679527504E-3,-1.966441050E-5
1.022718790E-1,-1.093959552E-3,1.614264096E-3,1.578230876E-3
1.073059410E-1,-1.093959552E-3,1.081632334E-3,5.129674682E-4
1.123716180E-1,2.634462435E-3,5.490005715E-4,-1.966441050E-5
1.174167230E-1,1.036567031E-3,1.614264096E-3,1.045599231E-3
1.225054730E-1,-2.869649325E-5,3.212158335E-3,5.129674682E-4
1.275787020E-1,1.036567031E-3,3.212158335E-3,1.045599231E-3
1.326006810E-1,3.167094197E-3,1.614264096E-3,5.129674682E-4
1.376829210E-1,1.036567031E-3,1.081632334E-3,5.129674682E-4
1.427059930E-1,1.569198794E-3,1.081632334E-3,2.110862639E-3
1.477909410E-1,1.569198794E-3,2.679527504E-3,5.129674682E-4
1.528640660E-1,1.036567031E-3,2.146895742E-3,1.045599231E-3
1.579087540E-1,-2.869649325E-5,3.212158335E-3,-5.522961728E-4
1.629431290E-1,-5.613282556E-4,2.679527504E-3,5.129674682E-4
1.680318270E-1,1.569198794E-3,5.490005715E-4,1.045599231E-3
1.730955770E-1,5.039352691E-4,-1.048894715E-3,5.129674682E-4
1.781418790E-1,-2.869649325E-5,1.636878005E-5,1.045599231E-3
1.831895870E-1,1.036567031E-3,-5.162634188E-4,2.643494401E-3
1.882595350E-1,1.569198794E-3,2.146895742E-3,2.643494401E-3
1.933121390E-1,-2.869649325E-5,2.146895742E-3,5.129674682E-4
1.984420350E-1,-2.691855188E-3,1.636878005E-5,5.129674682E-4
2.034331290E-1,-1.626591780E-3,5.490005715E-4,-1.966441050E-5
2.084912020E-1,1.569198794E-3,1.636878005E-5,-1.084927935E-3
2.135325560E-1,1.569198794E-3,5.490005715E-4,-1.966441050E-5
2.185908370E-1,-5.613282556E-4,1.614264096E-3,4.241389688E-3
2.236379730E-1,2.634462435E-3,5.490005715E-4,1.045599231E-3
2.287498480E-1,3.167094197E-3,1.081632334E-3,2.110862639E-3
2.337643270E-1,1.036567031E-3,5.490005715E-4,1.045599231E-3
2.388881290E-1,-2.869649325E-5,1.636878005E-5,-1.084927935E-3
2.438924000E-1,1.036567031E-3,1.636878005E-5,1.045599231E-3
2.489726080E-1,-1.626591780E-3,5.490005715E-4,5.129674682E-4
2.540003160E-1,-1.626591780E-3,1.614264096E-3,3.176126163E-3
2.590962020E-1,5.039352691E-4,1.636878005E-5,5.129674682E-4
2.641234930E-1,-1.093959552E-3,5.490005715E-4,-1.966441050E-5
2.691743790E-1,-2.869649325E-5,1.081632334E-3,-1.617559465E-3
2.742488580E-1,2.101830672E-3,1.614264096E-3,-1.966441050E-5
2.792987020E-1,3.699725959E-3,5.490005715E-4,2.110862639E-3
2.843702640E-1,2.101830672E-3,2.146895742E-3,1.045599231E-3
2.894109930E-1,5.039352691E-4,5.490005715E-4,2.643494401E-3
2.944598480E-1,-2.869649325E-5,5.490005715E-4,5.129674682E-4
2.995663060E-1,1.036567031E-3,1.081632334E-3,-2.150191227E-3
3.046117750E-1,1.036567031E-3,1.081632334E-3,-1.966441050E-5
3.096185460E-1,1.036567031E-3,1.636878005E-5,1.045599231E-3
3.147129210E-1,-5.613282556E-4,-1.581526478E-3,3.176126163E-3
3.197493790E-1,5.039352691E-4,1.081632334E-3,-5.522961728E-4
3.248000040E-1,1.569198794E-3,1.614264096E-3,-1.084927935E-3
3.298852120E-1,1.569198794E-3,1.636878005E-5,5.129674682E-4
3.349290140E-1,4.232357722E-3,-5.162634188E-4,1.578230876E-3
3.399966180E-1,1.036567031E-3,5.490005715E-4,1.578230876E-3
3.450806810E-1,1.036567031E-3,1.081632334E-3,-1.966441050E-5
3.500919830E-1,1.036567031E-3,1.636878005E-5,-1.617559465E-3
3.551726600E-1,2.101830672E-3,2.679527504E-3,1.578230876E-3
3.602200040E-1,1.036567031E-3,2.146895742E-3,-5.522961728E-4
3.652875560E-1,2.101830672E-3,1.081632334E-3,1.578230876E-3
3.703353680E-1,2.101830672E-3,-2.646790119E-3,1.045599231E-3
3.753799520E-1,-2.869649325E-5,1.081632334E-3,-1.084927935E-3
3.804276600E-1,5.039352691E-4,3.212158335E-3,-5.522961728E-4
3.855100560E-1,2.634462435E-3,5.490005715E-4,5.129674682E-4
3.905451600E-1,1.569198794E-3,1.614264096E-3,5.129674682E-4
3.956174520E-1,1.036567031E-3,2.146895742E-3,2.110862639E-3
4.006616710E-1,2.101830672E-3,2.146895742E-3,1.578230876E-3
4.057261500E-1,-2.869649325E-5,1.081632334E-3,5.129674682E-4
4.107798480E-1,2.634462435E-3,5.490005715E-4,2.643494401E-3
4.158862020E-1,1.569198794E-3,1.636878005E-5,2.643494401E-3
4.208913060E-1,-1.093959552E-3,1.614264096E-3,1.578230876E-3
4.259425040E-1,-2.869649325E-5,3.212158335E-3,2.110862639E-3
4.310201600E-1,2.101830672E-3,1.614264096E-3,1.578230876E-3
4.360562540E-1,2.101830672E-3,3.212158335E-3,1.578230876E-3
4.411216710E-1,2.101830672E-3,1.614264096E-3,1.045599231E-3
4.462084930E-1,3.699725959E-3,-5.162634188E-4,2.643494401E-3
4.512380770E-1,2.634462435E-3,1.081632334E-3,1.045599231E-3
4.563254730E-1,1.036567031E-3,1.614264096E-3,3.176126163E-3
4.613531810E-1,-2.869649325E-5,1.081632334E-3,-1.966441050E-5
4.664369310E-1,2.101830672E-3,1.636878005E-5,5.129674682E-4
4.715307850E-1,-5.613282556E-4,1.614264096E-3,-2.150191227E-3
4.765412540E-1,-5.613282556E-4,1.081632334E-3,-1.617559465E-3
4.816023480E-1,-2.869649325E-5,1.636878005E-5,1.045599231E-3
4.866440140E-1,-2.159223426E-3,1.636878005E-5,1.578230876E-3
4.917145870E-1,-1.093959552E-3,1.081632334E-3,2.110862639E-3
4.967717750E-1,2.634462435E-3,1.614264096E-3,2.110862639E-3
5.018289620E-1,4.764989484E-3,1.614264096E-3,-1.966441050E-5
5.068882330E-1,1.036567031E-3,5.490005715E-4,-5.522961728E-4
5.119441180E-1,-5.613282556E-4,5.490005715E-4,1.045599231E-3
5.170017750E-1,5.039352691E-4,1.081632334E-3,-1.966441050E-5
5.220596390E-1,-2.869649325E-5,1.081632334E-3,-1.084927935E-3
5.271202120E-1,-2.869649325E-5,1.081632334E-3,5.129674682E-4
5.321914620E-1,5.039352691E-4,1.614264096E-3,1.578230876E-3
5.372342230E-1,5.039352691E-4,1.614264096E-3,2.110862639E-3
5.422930770E-1,5.039352691E-4,1.614264096E-3,1.045599231E-3
5.473502640E-1,1.569198794E-3,-5.162634188E-4,1.578230876E-3
5.524068270E-1,4.232357722E-3,1.636878005E-5,-1.084927935E-3
5.574650040E-1,5.039352691E-4,1.614264096E-3,-5.522961728E-4
5.625230250E-1,2.101830672E-3,1.614264096E-3,1.578230876E-3
5.675609930E-1,1.036567031E-3,2.146895742E-3,2.110862639E-3
5.726390140E-1,1.036567031E-3,1.614264096E-3,1.045599231E-3
5.776944830E-1,-2.869649325E-5,1.636878005E-5,1.045599231E-3
5.827846390E-1,-5.613282556E-4,-1.048894715E-3,-1.966441050E-5
5.878109410E-1,-5.613282556E-4,1.636878005E-5,1.045599231E-3
5.928687540E-1,5.039352691E-4,-5.162634188E-4,1.045599231E-3
5.979266710E-1,-1.093959552E-3,5.490005715E-4,-1.966441050E-5
6.029843790E-1,2.634462435E-3,4.277423024E-3,-5.522961728E-4
6.080430770E-1,1.036567031E-3,5.490005715E-4,-5.522961728E-4
6.131001600E-1,-5.613282556E-4,-5.162634188E-4,2.643494401E-3
6.181570870E-1,1.569198794E-3,-1.048894715E-3,-1.617559465E-3
6.231767750E-1,-2.869649325E-5,-1.048894715E-3,-1.966441050E-5
6.282615140E-1,1.036567031E-3,5.490005715E-4,-5.522961728E-4
6.333187020E-1,3.167094197E-3,5.490005715E-4,1.578230876E-3
6.383989100E-1,1.036567031E-3,-1.581526478E-3,-1.084927935E-3
6.434327640E-1,-5.613282556E-4,2.146895742E-3,1.578230876E-3
6.484901080E-1,5.039352691E-4,2.146895742E-3,5.129674682E-4
6.535421910E-1,2.101830672E-3,1.614264096E-3,-5.522961728E-4
6.586349520E-1,2.101830672E-3,3.744791029E-3,5.129674682E-4
6.636642750E-1,5.039352691E-4,2.146895742E-3,1.045599231E-3
6.687227120E-1,5.039352691E-4,5.490005715E-4,5.129674682E-4
6.737731290E-1,1.569198794E-3,1.636878005E-5,1.045599231E-3
6.788375560E-1,1.569198794E-3,2.679527504E-3,1.578230876E-3
6.838946390E-1,-2.869649325E-5,1.614264096E-3,1.578230876E-3
6.889527640E-1,1.569198794E-3,1.614264096E-3,5.129674682E-4
6.940532330E-1,1.569198794E-3,1.081632334E-3,1.045599231E-3
6.990689620E-1,4.232357722E-3,3.212158335E-3,-5.522961728E-4
7.041194830E-1,-1.093959552E-3,2.146895742E-3,1.578230876E-3
7.091850040E-1,-2.869649325E-5,-5.162634188E-4,-1.084927935E-3
7.142615140E-1,1.036567031E-3,-1.048894715E-3,-5.522961728E-4
7.193010460E-1,1.036567031E-3,5.490005715E-4,5.129674682E-4
7.243658890E-1,2.634462435E-3,1.636878005E-5,-1.966441050E-5
7.294178160E-1,2.101830672E-3,1.636878005E-5,-1.966441050E-5
7.344846910E-1,5.039352691E-4,1.636878005E-5,-1.966441050E-5
7.395317750E-1,3.167094197E-3,1.614264096E-3,-1.617559465E-3
7.446219310E-1,3.167094197E-3,1.614264096E-3,-2.150191227E-3
7.496427640E-1,1.036567031E-3,2.146895742E-3,-1.966441050E-5
7.547340660E-1,2.634462435E-3,5.490005715E-4,2.643494401E-3
7.597759410E-1,2.101830672E-3,1.614264096E-3,1.045599231E-3
7.648707330E-1,1.569198794E-3,1.081632334E-3,1.578230876E-3
7.698918270E-1,5.039352691E-4,1.636878005E-5,1.578230876E-3
7.749708890E-1,-5.613282556E-4,1.614264096E-3,-1.966441050E-5
7.800060460E-1,-5.613282556E-4,1.614264096E-3,5.129674682E-4
7.850552640E-1,1.036567031E-3,-5.162634188E-4,1.045599231E-3
7.901222430E-1,4.232357722E-3,1.636878005E-5,1.045599231E-3
7.952304210E-1,3.167094197E-3,1.636878005E-5,5.129674682E-4
8.002387020E-1,1.036567031E-3,1.636878005E-5,1.045599231E-3
8.053577640E-1,1.569198794E-3,1.614264096E-3,5.129674682E-4
8.103525560E-1,-5.613282556E-4,3.212158335E-3,5.129674682E-4
8.154250560E-1,-1.093959552E-3,5.490005715E-4,5.129674682E-4
8.204694830E-1,5.039352691E-4,2.146895742E-3,-1.966441050E-5
8.255456810E-1,1.036567031E-3,1.614264096E-3,-1.084927935E-3
8.305851600E-1,2.634462435E-3,1.081632334E-3,-1.966441050E-5
8.356322960E-1,3.167094197E-3,1.614264096E-3,-1.084927935E-3
8.406996390E-1,5.039352691E-4,1.081632334E-3,5.129674682E-4
8.457515140E-1,2.634462435E-3,-1.048894715E-3,2.110862639E-3
8.508167230E-1,2.101830672E-3,-5.162634188E-4,2.643494401E-3
8.558901600E-1,-1.626591780E-3,2.146895742E-3,2.110862639E-3
8.609318270E-1,5.039352691E-4,2.146895742E-3,1.045599231E-3
8.660004210E-1,-5.613282556E-4,-5.162634188E-4,5.129674682E-4
8.710450560E-1,-5.613282556E-4,-2.114158357E-3,-1.966441050E-5
8.760958370E-1,-2.869649325E-5,1.636878005E-5,-1.617559465E-3
8.811532850E-1,1.569198794E-3,1.614264096E-3,5.129674682E-4
8.862197430E-1,1.569198794E-3,1.614264096E-3,1.578230876E-3
8.912682330E-1,5.039352691E-4,1.081632334E-3,-1.966441050E-5
8.963127640E-1,1.036567031E-3,5.490005715E-4,5.129674682E-4
9.013792230E-1,1.036567031E-3,-1.581526478E-3,1.045599231E-3
9.064308890E-1,1.036567031E-3,-5.162634188E-4,-1.084927935E-3
9.114952120E-1,1.036567031E-3,3.212158335E-3,-5.522961728E-4
9.165667750E-1,1.569198794E-3,2.146895742E-3,1.045599231E-3
9.216154730E-1,1.036567031E-3,-5.162634188E-4,5.129674682E-4
9.266693790E-1,4.764989484E-3,5.490005715E-4,5.129674682E-4
9.317276080E-1,-2.869649325E-5,3.212158335E-3,2.110862639E-3
9.368126080E-1,1.036567031E-3,4.277423024E-3,1.578230876E-3
9.418427120E-1,1.569198794E-3,1.636878005E-5,1.578230876E-3
9.469006290E-1,1.569198794E-3,-1.581526478E-3,1.578230876E-3
9.519584410E-1,1.569198794E-3,1.081632334E-3,5.129674682E-4
9.570437020E-1,-5.613282556E-4,1.614264096E-3,5.129674682E-4
9.620740140E-1,1.569198794E-3,1.636878005E-5,1.045599231E-3
9.671395870E-1,2.101830672E-3,2.146895742E-3,2.110862639E-3
9.722176600E-1,1.036567031E-3,1.081632334E-3,1.578230876E-3
9.772472960E-1,5.039352691E-4,5.490005715E-4,-5.522961728E-4
9.823054210E-1,1.036567031E-3,2.146895742E-3,-1.966441050E-5
9.873512540E-1,-5.613282556E-4,2.679527504E-3,1.578230876E-3
9.924330250E-1,2.101830672E-3,5.490005715E-4,1.578230876E-3
9.974911500E-1,1.569198794E-3,1.614264096E-3,1.578230876E-3
1.002549431E0,-2.869649325E-5,1.614264096E-3,-1.966441050E-5
1.007606514E0,-2.869649325E-5,1.081632334E-3,-1.084927935E-3
1.012665525E0,1.569198794E-3,1.081632334E-3,-1.084927935E-3
1.017723598E0,2.634462435E-3,5.490005715E-4,1.045599231E-3
1.022780421E0,1.036567031E-3,1.636878005E-5,5.129674682E-4
1.027867712E0,5.039352691E-4,2.146895742E-3,5.129674682E-4
1.032895264E0,2.101830672E-3,1.081632334E-3,-1.084927935E-3
1.037952764E0,-2.869649325E-5,1.636878005E-5,-1.084927935E-3
1.043010525E0,2.634462435E-3,1.081632334E-3,1.578230876E-3
1.048068910E0,1.569198794E-3,1.614264096E-3,1.578230876E-3
1.053126150E0,1.569198794E-3,2.146895742E-3,1.045599231E-3
1.058183650E0,2.634462435E-3,2.146895742E-3,5.129674682E-4
1.063241983E0,-2.869649325E-5,3.212158335E-3,-5.522961728E-4
1.068299483E0,1.036567031E-3,2.146895742E-3,-5.522961728E-4
1.073357816E0,5.039352691E-4,1.081632334E-3,2.110862639E-3
1.078414587E0,5.039352691E-4,1.614264096E-3,5.129674682E-4
1.083473806E0,-2.869649325E-5,5.490005715E-4,-1.084927935E-3
1.088530577E0,5.039352691E-4,5.490005715E-4,-1.966441050E-5
1.093587087E0,3.699725959E-3,3.212158335E-3,-1.084927935E-3
1.098646462E0,1.036567031E-3,3.212158335E-3,-5.522961728E-4
1.103704066E0,1.036567031E-3,-5.162634188E-4,5.129674682E-4
1.108761046E0,2.634462435E-3,1.636878005E-5,1.578230876E-3
1.113818858E0,1.569198794E-3,-1.048894715E-3,-1.966441050E-5
1.118876618E0,5.039352691E-4,1.636878005E-5,5.129674682E-4
1.123933493E0,1.036567031E-3,2.146895742E-3,-1.966441050E-5
1.128990941E0,1.569198794E-3,1.081632334E-3,-1.966441050E-5
1.134040577E0,1.569198794E-3,1.614264096E-3,1.045599231E-3
1.139090212E0,5.039352691E-4,-1.581526478E-3,2.110862639E-3
1.144139796E0,1.036567031E-3,1.614264096E-3,5.129674682E-4
1.149189431E0,1.569198794E-3,2.146895742E-3,1.578230876E-3
1.154239066E0,-1.093959552E-3,5.490005715E-4,2.110862639E-3
1.159316462E0,2.634462435E-3,-1.048894715E-3,5.129674682E-4
1.164366098E0,3.167094197E-3,1.081632334E-3,-1.084927935E-3
1.169415733E0,-1.093959552E-3,3.744791029E-3,-5.522961728E-4
1.174465316E0,-2.691855188E-3,1.614264096E-3,2.110862639E-3
1.179515004E0,1.569198794E-3,-5.162634188E-4,1.578230876E-3
1.184564639E0,2.101830672E-3,5.490005715E-4,-1.966441050E-5
1.189661150E0,-1.093959552E-3,1.614264096E-3,1.045599231E-3
1.194710785E0,5.039352691E-4,2.679527504E-3,1.045599231E-3
1.199760421E0,2.634462435E-3,1.081632334E-3,-5.522961728E-4
1.204810004E0,3.699725959E-3,-5.162634188E-4,-1.966441050E-5
1.209859691E0,2.101830672E-3,2.146895742E-3,2.110862639E-3
1.214909275E0,1.036567031E-3,1.081632334E-3,1.045599231E-3
1.220014639E0,1.569198794E-3,5.490005715E-4,1.045599231E-3
1.225064275E0,5.039352691E-4,2.146895742E-3,-1.966441050E-5
1.230113910E0,-5.613282556E-4,1.614264096E-3,1.578230876E-3
1.235163546E0,5.039352691E-4,1.081632334E-3,2.643494401E-3
1.240213181E0,2.101830672E-3,1.081632334E-3,1.045599231E-3
1.245262816E0,1.569198794E-3,5.490005715E-4,3.708757926E-3
1.250383806E0,2.101830672E-3,1.081632334E-3,2.110862639E-3
1.255433441E0,1.569198794E-3,2.679527504E-3,1.045599231E-3
1.260483077E0,3.167094197E-3,2.146895742E-3,3.176126163E-3
1.265532712E0,3.699725959E-3,2.146895742E-3,2.643494401E-3
1.270582296E0,-2.869649325E-5,1.636878005E-5,1.045599231E-3
1.275631983E0,-1.626591780E-3,1.081632334E-3,1.045599231E-3
1.280718389E0,3.167094197E-3,1.636878005E-5,-5.522961728E-4
1.285768025E0,-5.613282556E-4,5.490005715E-4,1.045599231E-3
1.290817660E0,-2.869649325E-5,1.081632334E-3,1.045599231E-3
1.295867243E0,-1.093959552E-3,5.490005715E-4,1.578230876E-3
1.300916879E0,1.036567031E-3,2.146895742E-3,-1.966441050E-5
1.305966514E0,2.634462435E-3,1.614264096E-3,1.045599231E-3
1.311062504E0,1.036567031E-3,1.081632334E-3,1.578230876E-3
1.316112139E0,-5.613282556E-4,2.679527504E-3,-5.522961728E-4
1.321161723E0,-2.869649325E-5,1.614264096E-3,5.129674682E-4
1.326211358E0,2.101830672E-3,5.490005715E-4,1.045599231E-3
1.331260993E0,1.569198794E-3,2.146895742E-3,-1.617559465E-3
1.336310629E0,-5.613282556E-4,1.614264096E-3,5.129674682E-4
1.341409796E0,1.036567031E-3,1.636878005E-5,1.578230876E-3
1.346459379E0,5.039352691E-4,1.636878005E-5,5.129674682E-4
1.351509066E0,5.039352691E-4,2.146895742E-3,1.578230876E-3
1.356558650E0,1.569198794E-3,1.614264096E-3,-1.966441050E-5
1.361608285E0,-1.093959552E-3,1.636878005E-5,1.578230876E-3
1.366657921E0,2.634462435E-3,1.081632334E-3,1.578230876E-3
1.371757712E0,3.167094197E-3,1.636878005E-5,1.045599231E-3
1.376807348E0,1.569198794E-3,5.490005715E-4,-5.522961728E-4
1.381856983E0,1.036567031E-3,5.490005715E-4,5.129674682E-4
1.386906566E0,1.036567031E-3,1.614264096E-3,2.643494401E-3
1.391956202E0,3.699725959E-3,2.679527504E-3,1.578230876E-3
1.397005837E0,3.699725959E-3,2.146895742E-3,1.578230876E-3
1.402090004E0,1.569198794E-3,2.146895742E-3,-5.522961728E-4
1.407139639E0,1.569198794E-3,-5.162634188E-4,2.110862639E-3
1.412189275E0,-2.869649325E-5,5.490005715E-4,2.643494401E-3
1.417238910E0,1.569198794E-3,-1.048894715E-3,-1.617559465E-3
1.422288546E0,5.039352691E-4,1.614264096E-3,-5.522961728E-4
1.427338181E0,-5.613282556E-4,5.342686549E-3,1.045599231E-3
1.432466202E0,-5.613282556E-4,3.744791029E-3,-1.966441050E-5
1.437515837E0,1.569198794E-3,1.081632334E-3,3.176126163E-3
1.442565473E0,2.101830672E-3,1.081632334E-3,1.578230876E-3
1.447615056E0,1.036567031E-3,5.490005715E-4,5.129674682E-4
1.452664691E0,1.036567031E-3,1.081632334E-3,4.774021450E-3
1.457714327E0,2.101830672E-3,5.490005715E-4,1.578230876E-3
1.462812400E0,-5.613282556E-4,1.636878005E-5,5.129674682E-4
1.467861983E0,-2.691855188E-3,1.636878005E-5,2.110862639E-3
1.472911671E0,5.039352691E-4,2.146895742E-3,2.110862639E-3
1.477961254E0,1.036567031E-3,2.146895742E-3,5.129674682E-4
1.483010889E0,3.167094197E-3,5.490005715E-4,-1.966441050E-5
1.488060525E0,4.764989484E-3,5.490005715E-4,5.129674682E-4
1.493137764E0,5.830253009E-3,1.081632334E-3,5.129674682E-4
1.498187400E0,1.569198794E-3,2.146895742E-3,-1.084927935E-3
1.503237035E0,-1.093959552E-3,1.636878005E-5,-2.682822989E-3
1.508286671E0,-1.626591780E-3,1.636878005E-5,-1.617559465E-3
1.513336306E0,1.569198794E-3,2.146895742E-3,-3.215454752E-3
1.518385941E0,2.101830672E-3,2.679527504E-3,-5.522961728E-4
1.523489639E0,-1.626591780E-3,1.614264096E-3,5.129674682E-4
1.528539327E0,-1.093959552E-3,1.081632334E-3,-1.084927935E-3
1.533588962E0,5.039352691E-4,-1.048894715E-3,-5.522961728E-4
1.538638546E0,5.039352691E-4,-5.162634188E-4,1.578230876E-3
1.543688181E0,-1.093959552E-3,1.081632334E-3,5.129674682E-4
1.548737816E0,1.569198794E-3,1.614264096E-3,5.129674682E-4
1.553836150E0,2.101830672E-3,5.490005715E-4,5.129674682E-4
1.558885785E0,1.569198794E-3,1.636878005E-5,2.110862639E-3
1.563935421E0,1.569198794E-3,3.212158335E-3,-5.522961728E-4
1.568985004E0,1.569198794E-3,3.212158335E-3,-1.084927935E-3
1.574034639E0,2.101830672E-3,5.490005715E-4,-1.966441050E-5
1.579084275E0,1.569198794E-3,-5.162634188E-4,1.045599231E-3
1.584185681E0,3.167094197E-3,1.081632334E-3,-1.084927935E-3
1.589235264E0,-5.613282556E-4,-5.162634188E-4,2.110862639E-3
1.594284952E0,1.569198794E-3,3.744791029E-3,-5.522961728E-4
1.599334535E0,-2.869649325E-5,1.614264096E-3,-1.084927935E-3
1.604384171E0,-2.869649325E-5,1.636878005E-5,2.110862639E-3
1.609433806E0,-2.869649325E-5,1.081632334E-3,-1.084927935E-3
1.614530316E0,1.036567031E-3,1.636878005E-5,-1.966441050E-5
1.619579952E0,2.634462435E-3,1.636878005E-5,-1.966441050E-5
1.624629535E0,3.167094197E-3,1.636878005E-5,5.129674682E-4
1.629679171E0,5.039352691E-4,-1.581526478E-3,-5.522961728E-4
1.634728806E0,1.036567031E-3,5.490005715E-4,1.045599231E-3
1.639778441E0,1.036567031E-3,5.490005715E-4,1.045599231E-3
1.644867452E0,-2.159223426E-3,1.636878005E-5,5.129674682E-4
1.649917087E0,-5.613282556E-4,-1.581526478E-3,1.045599231E-3
1.654966723E0,-1.626591780E-3,1.081632334E-3,5.129674682E-4
1.660016358E0,3.699725959E-3,3.212158335E-3,-1.966441050E-5
1.665065993E0,3.167094197E-3,2.146895742E-3,2.643494401E-3
1.670115629E0,5.039352691E-4,1.636878005E-5,1.045599231E-3
1.675237452E0,1.036567031E-3,1.614264096E-3,-1.966441050E-5
1.680287087E0,3.699725959E-3,2.679527504E-3,-1.084927935E-3
1.685336671E0,2.634462435E-3,2.146895742E-3,-1.966441050E-5
1.690386306E0,5.039352691E-4,5.490005715E-4,3.176126163E-3
1.695435941E0,1.036567031E-3,3.212158335E-3,3.708757926E-3
1.700485577E0,-1.093959552E-3,3.744791029E-3,3.708757926E-3
1.705556931E0,1.569198794E-3,1.636878005E-5,5.129674682E-4
1.710606566E0,2.634462435E-3,-1.048894715E-3,-1.084927935E-3
1.715656202E0,-5.613282556E-4,1.614264096E-3,5.129674682E-4
1.720705837E0,5.039352691E-4,3.212158335E-3,1.578230876E-3
1.725755473E0,2.634462435E-3,1.081632334E-3,1.578230876E-3
1.730805108E0,-2.869649325E-5,1.081632334E-3,3.176126163E-3
1.735904014E0,2.101830672E-3,1.081632334E-3,-1.966441050E-5
1.740953650E0,5.039352691E-4,1.614264096E-3,1.578230876E-3
1.746003285E0,2.101830672E-3,5.490005715E-4,1.045599231E-3
1.751052921E0,2.101830672E-3,-5.162634188E-4,-1.966441050E-5
1.756102504E0,1.036567031E-3,-5.162634188E-4,1.045599231E-3
1.761152191E0,2.101830672E-3,1.081632334E-3,-1.084927935E-3
1.766263129E0,1.569198794E-3,2.146895742E-3,-1.966441050E-5
1.771312764E0,2.634462435E-3,5.490005715E-4,-1.966441050E-5
1.776362400E0,5.039352691E-4,2.146895742E-3,1.578230876E-3
1.781411983E0,1.569198794E-3,1.081632334E-3,-1.617559465E-3
1.786461618E0,1.569198794E-3,1.614264096E-3,-5.522961728E-4
1.791511254E0,-2.869649325E-5,2.146895742E-3,2.110862639E-3
1.796614587E0,-5.613282556E-4,-5.162634188E-4,-5.522961728E-4
1.801664223E0,-1.093959552E-3,5.490005715E-4,5.129674682E-4
1.806713858E0,-2.869649325E-5,1.614264096E-3,1.045599231E-3
1.811763441E0,1.036567031E-3,1.081632334E-3,5.129674682E-4
1.816813077E0,1.036567031E-3,-1.048894715E-3,1.045599231E-3
1.821862712E0,1.036567031E-3,1.636878005E-5,-5.522961728E-4
1.826951618E0,1.569198794E-3,2.679527504E-3,5.129674682E-4
1.832001254E0,2.101830672E-3,5.490005715E-4,-1.966441050E-5
1.837050889E0,3.167094197E-3,1.081632334E-3,-1.966441050E-5
1.842100525E0,3.699725959E-3,1.614264096E-3,-1.084927935E-3
1.847150160E0,4.764989484E-3,1.614264096E-3,1.578230876E-3
1.852199796E0,1.569198794E-3,-5.162634188E-4,2.643494401E-3
1.857358858E0,1.569198794E-3,1.636878005E-5,5.129674682E-4
1.862408493E0,1.569198794E-3,1.614264096E-3,1.045599231E-3
1.867458129E0,1.036567031E-3,5.490005715E-4,2.110862639E-3
1.872507764E0,1.036567031E-3,5.490005715E-4,-1.966441050E-5
1.877557400E0,2.101830672E-3,1.636878005E-5,1.045599231E-3
1.882607035E0,1.569198794E-3,1.081632334E-3,5.129674682E-4
1.887689848E0,2.634462435E-3,1.614264096E-3,-1.617559465E-3
1.892739483E0,1.036567031E-3,-5.162634188E-4,5.129674682E-4
1.897789118E0,1.569198794E-3,-5.162634188E-4,2.643494401E-3
1.902838702E0,1.569198794E-3,1.614264096E-3,1.578230876E-3
1.907888337E0,3.167094197E-3,1.614264096E-3,-1.966441050E-5
1.912937973E0,3.699725959E-3,5.490005715E-4,1.045599231E-3
1.918056254E0,2.101830672E-3,2.146895742E-3,-1.966441050E-5
1.923105889E0,1.036567031E-3,-5.162634188E-4,5.129674682E-4
1.928155525E0,2.101830672E-3,-5.162634188E-4,5.129674682E-4
1.933205108E0,2.101830672E-3,-5.162634188E-4,-5.522961728E-4
1.938254743E0,2.101830672E-3,-1.048894715E-3,1.578230876E-3
1.943304379E0,2.634462435E-3,-1.048894715E-3,5.129674682E-4
1.948347400E0,-5.613282556E-4,5.490005715E-4,-1.617559465E-3
1.953397035E0,2.101830672E-3,5.490005715E-4,-5.522961728E-4
1.958446671E0,2.634462435E-3,2.679527504E-3,1.578230876E-3
1.963496254E0,5.039352691E-4,1.081632334E-3,1.045599231E-3
1.968545889E0,5.039352691E-4,1.636878005E-5,1.045599231E-3
1.973595525E0,1.036567031E-3,3.212158335E-3,1.045599231E-3
1.978696046E0,2.634462435E-3,1.614264096E-3,3.176126163E-3
1.983745681E0,2.634462435E-3,1.081632334E-3,1.045599231E-3
1.988795316E0,1.036567031E-3,2.679527504E-3,5.129674682E-4
1.993844900E0,5.039352691E-4,2.679527504E-3,1.045599231E-3
1.998894535E0,2.634462435E-3,1.081632334E-3,-1.966441050E-5
2.003944171E0,1.036567031E-3,5.490005715E-4,2.643494401E-3
2.009052556E0,2.634462435E-3,-5.162634188E-4,1.045599231E-3
2.014102191E0,2.634462435E-3,1.636878005E-5,2.643494401E-3
2.019151827E0,1.036567031E-3,1.636878005E-5,1.045599231E-3
2.024201410E0,5.039352691E-4,5.490005715E-4,-1.966441050E-5
2.029251046E0,3.167094197E-3,1.081632334E-3,-5.522961728E-4
2.034300681E0,3.167094197E-3,3.744791029E-3,-1.084927935E-3
2.039386150E0,1.569198794E-3,2.146895742E-3,-1.966441050E-5
2.044435785E0,-1.093959552E-3,1.081632334E-3,2.110862639E-3
2.049485421E0,1.036567031E-3,2.679527504E-3,-1.084927935E-3
2.054535004E0,2.634462435E-3,2.679527504E-3,-1.084927935E-3
2.059584639E0,-1.626591780E-3,1.081632334E-3,5.129674682E-4
2.064634275E0,1.036567031E-3,1.081632334E-3,5.129674682E-4
2.069735264E0,2.634462435E-3,-1.048894715E-3,2.643494401E-3
2.074784848E0,-2.869649325E-5,1.081632334E-3,1.045599231E-3
2.079834535E0,1.569198794E-3,1.636878005E-5,5.129674682E-4
2.084884118E0,1.569198794E-3,5.490005715E-4,5.129674682E-4
2.089933754E0,5.039352691E-4,1.636878005E-5,2.110862639E-3
2.094983389E0,3.699725959E-3,5.490005715E-4,5.129674682E-4
2.100079900E0,4.232357722E-3,1.614264096E-3,1.045599231E-3
2.105129483E0,2.101830672E-3,1.081632334E-3,-5.522961728E-4
2.110179171E0,3.167094197E-3,5.490005715E-4,5.129674682E-4
2.115228754E0,3.699725959E-3,1.081632334E-3,1.578230876E-3
2.120278389E0,3.699725959E-3,2.679527504E-3,1.578230876E-3
2.125328025E0,3.167094197E-3,2.679527504E-3,-2.150191227E-3
2.130417556E0,1.036567031E-3,1.081632334E-3,-2.150191227E-3
2.135473598E0,2.101830672E-3,-1.048894715E-3,2.110862639E-3
2.140529691E0,-2.869649325E-5,1.614264096E-3,2.110862639E-3
2.145585733E0,1.569198794E-3,1.081632334E-3,5.129674682E-4
2.150641827E0,1.036567031E-3,5.490005715E-4,-1.084927935E-3
2.155697921E0,-2.869649325E-5,1.081632334E-3,2.643494401E-3
2.160763806E0,-2.869649325E-5,3.212158335E-3,3.176126163E-3
2.165819900E0,3.167094197E-3,1.081632334E-3,1.045599231E-3
2.170875993E0,1.569198794E-3,1.081632334E-3,-1.966441050E-5
2.175932035E0,-2.869649325E-5,5.490005715E-4,-2.150191227E-3
2.180988129E0,5.039352691E-4,1.614264096E-3,5.129674682E-4
2.186044223E0,1.569198794E-3,2.146895742E-3,2.110862639E-3
2.191110212E0,1.036567031E-3,3.212158335E-3,-1.084927935E-3
2.196166358E0,-2.159223426E-3,1.614264096E-3,1.578230876E-3
2.201222400E0,1.569198794E-3,1.614264096E-3,-1.966441050E-5
2.206278441E0,2.634462435E-3,1.081632334E-3,-1.966441050E-5
2.211334535E0,2.634462435E-3,-1.581526478E-3,1.578230876E-3
2.216390629E0,-2.869649325E-5,-2.114158357E-3,-5.522961728E-4
2.221447400E0,-2.869649325E-5,1.614264096E-3,5.129674682E-4
2.226503493E0,3.699725959E-3,1.636878005E-5,1.578230876E-3
2.231559587E0,2.634462435E-3,-5.162634188E-4,5.129674682E-4
2.236615629E0,4.764989484E-3,1.081632334E-3,1.578230876E-3
2.241671775E0,3.699725959E-3,1.614264096E-3,-1.966441050E-5
2.246727816E0,2.634462435E-3,1.614264096E-3,2.110862639E-3
2.251816827E0,3.167094197E-3,1.614264096E-3,1.578230876E-3
2.256872868E0,3.167094197E-3,1.614264096E-3,1.578230876E-3
2.261928962E0,3.167094197E-3,1.081632334E-3,-5.522961728E-4
2.266985056E0,2.101830672E-3,1.636878005E-5,2.643494401E-3
2.272041150E0,3.699725959E-3,1.636878005E-5,5.129674682E-4
2.277097191E0,5.039352691E-4,5.490005715E-4,5.129674682E-4
2.282163337E0,-1.093959552E-3,1.081632334E-3,1.045599231E-3
2.287219379E0,2.101830672E-3,1.081632334E-3,-1.084927935E-3
2.292275473E0,5.039352691E-4,1.081632334E-3,1.578230876E-3
2.297331566E0,-2.869649325E-5,5.490005715E-4,1.045599231E-3
2.302387660E0,5.039352691E-4,1.081632334E-3,5.129674682E-4
2.307443702E0,5.039352691E-4,-1.048894715E-3,5.129674682E-4
2.312510368E0,-5.613282556E-4,1.636878005E-5,-5.522961728E-4
2.317566410E0,-2.869649325E-5,4.810054787E-3,5.129674682E-4
2.322622504E0,2.634462435E-3,2.679527504E-3,5.129674682E-4
2.327678598E0,-1.626591780E-3,5.490005715E-4,-1.966441050E-5
2.332734691E0,5.039352691E-4,1.614264096E-3,2.110862639E-3
2.337790733E0,4.764989484E-3,2.146895742E-3,-1.966441050E-5
2.342838754E0,4.232357722E-3,3.212158335E-3,-1.966441050E-5
2.347894848E0,2.101830672E-3,1.614264096E-3,2.643494401E-3
2.352950941E0,4.232357722E-3,2.146895742E-3,2.110862639E-3
2.358006983E0,3.699725959E-3,2.679527504E-3,-1.966441050E-5
2.363063077E0,3.167094197E-3,1.081632334E-3,-5.522961728E-4
2.368119171E0,-1.626591780E-3,5.490005715E-4,1.045599231E-3
2.373207087E0,-2.869649325E-5,5.490005715E-4,-1.966441050E-5
2.378263233E0,3.699725959E-3,5.490005715E-4,-1.966441050E-5
2.383319275E0,3.699725959E-3,5.490005715E-4,-5.522961728E-4
2.388375368E0,1.569198794E-3,1.636878005E-5,-5.522961728E-4
2.393431462E0,-2.869649325E-5,1.636878005E-5,1.045599231E-3
2.398487504E0,2.101830672E-3,1.081632334E-3,2.110862639E-3
2.403528962E0,4.232357722E-3,1.614264096E-3,1.578230876E-3
2.408585056E0,4.232357722E-3,1.636878005E-5,1.045599231E-3
2.413641150E0,-2.869649325E-5,-1.048894715E-3,1.578230876E-3
2.418697191E0,-2.869649325E-5,1.636878005E-5,1.578230876E-3
2.423753285E0,1.569198794E-3,1.636878005E-5,5.129674682E-4
2.428809379E0,1.036567031E-3,-5.162634188E-4,1.045599231E-3
2.433874691E0,1.569198794E-3,2.146895742E-3,-1.966441050E-5
2.438930785E0,-2.869649325E-5,1.614264096E-3,-1.966441050E-5
2.443986879E0,5.039352691E-4,-5.162634188E-4,-1.966441050E-5
2.449042921E0,5.039352691E-4,-5.162634188E-4,1.045599231E-3
2.454099066E0,-1.626591780E-3,5.490005715E-4,2.110862639E-3
2.459155108E0,2.101830672E-3,1.081632334E-3,5.129674682E-4
2.464229379E0,1.036567031E-3,1.081632334E-3,-1.966441050E-5
2.469285473E0,5.039352691E-4,1.614264096E-3,5.129674682E-4
2.474341566E0,-5.613282556E-4,1.636878005E-5,1.045599231E-3
2.479397608E0,3.167094197E-3,1.614264096E-3,5.129674682E-4
2.484453702E0,3.699725959E-3,1.081632334E-3,5.129674682E-4
2.489509796E0,1.569198794E-3,2.146895742E-3,3.708757926E-3
2.494576879E0,-2.869649325E-5,3.212158335E-3,-1.966441050E-5
2.499632973E0,1.569198794E-3,2.146895742E-3,-5.522961728E-4
2.504689066E0,-2.869649325E-5,2.679527504E-3,-1.966441050E-5
2.509745108E0,2.101830672E-3,-5.162634188E-4,1.578230876E-3
2.514801202E0,3.699725959E-3,5.490005715E-4,2.110862639E-3
2.519857296E0,1.569198794E-3,5.490005715E-4,5.129674682E-4
2.524936202E0,5.039352691E-4,1.081632334E-3,-1.966441050E-5
2.529992243E0,5.039352691E-4,1.614264096E-3,-1.084927935E-3
2.535048389E0,2.101830672E-3,2.679527504E-3,1.045599231E-3
2.540104431E0,1.569198794E-3,2.146895742E-3,2.643494401E-3
2.545160473E0,5.039352691E-4,5.490005715E-4,3.176126163E-3
2.550216566E0,1.569198794E-3,1.081632334E-3,-1.084927935E-3
2.555283910E0,1.036567031E-3,-1.048894715E-3,-1.966441050E-5
2.560339952E0,-2.869649325E-5,-1.048894715E-3,-5.522961728E-4
2.565396046E0,2.634462435E-3,1.636878005E-5,-5.522961728E-4
2.570452139E0,1.569198794E-3,-1.048894715E-3,1.578230876E-3
2.575508233E0,4.764989484E-3,1.081632334E-3,-1.084927935E-3
2.580564275E0,4.232357722E-3,5.490005715E-4,2.110862639E-3
2.585631879E0,5.039352691E-4,2.146895742E-3,3.176126163E-3
2.590687921E0,1.036567031E-3,1.614264096E-3,5.129674682E-4
2.595744014E0,3.167094197E-3,1.614264096E-3,5.129674682E-4
2.600800108E0,2.101830672E-3,-5.162634188E-4,-1.966441050E-5
2.605856202E0,5.039352691E-4,-1.048894715E-3,1.578230876E-3
2.610912243E0,5.039352691E-4,5.490005715E-4,2.643494401E-3
2.615976098E0,1.569198794E-3,5.490005715E-4,2.643494401E-3
2.621032139E0,2.101830672E-3,1.636878005E-5,2.110862639E-3
2.626088233E0,5.039352691E-4,1.081632334E-3,-1.966441050E-5
2.631144327E0,-2.869649325E-5,1.636878005E-5,-1.084927935E-3
2.636200421E0,3.167094197E-3,2.679527504E-3,-2.150191227E-3
2.641256462E0,1.569198794E-3,3.212158335E-3,2.110862639E-3
2.646299796E0,2.101830672E-3,2.146895742E-3,1.045599231E-3
2.651355889E0,2.634462435E-3,1.636878005E-5,-1.084927935E-3
2.656411983E0,3.167094197E-3,1.636878005E-5,-1.966441050E-5
2.661468025E0,-2.869649325E-5,2.679527504E-3,1.578230876E-3
2.666524118E0,-5.613282556E-4,3.212158335E-3,1.045599231E-3
2.671580212E0,1.036567031E-3,2.146895742E-3,-1.966441050E-5
2.676647921E0,2.634462435E-3,1.614264096E-3,1.045599231E-3
2.681704014E0,2.101830672E-3,1.081632334E-3,-1.617559465E-3
2.686760108E0,5.039352691E-4,-5.162634188E-4,1.045599231E-3
2.691816150E0,3.167094197E-3,5.490005715E-4,1.045599231E-3
2.696872243E0,1.569198794E-3,1.614264096E-3,-5.522961728E-4
2.701928337E0,1.036567031E-3,1.614264096E-3,-5.522961728E-4
2.707016983E0,1.036567031E-3,-1.048894715E-3,1.045599231E-3
2.712073077E0,2.101830672E-3,-1.048894715E-3,2.110862639E-3
2.717129171E0,5.039352691E-4,1.081632334E-3,-1.966441050E-5
2.722185212E0,1.036567031E-3,5.490005715E-4,-1.966441050E-5
2.727241306E0,1.569198794E-3,2.679527504E-3,1.578230876E-3
2.732297400E0,-5.613282556E-4,2.146895742E-3,5.129674682E-4
2.737353129E0,-5.613282556E-4,5.490005715E-4,-5.522961728E-4
2.742409223E0,-2.869649325E-5,-5.162634188E-4,-1.617559465E-3
2.747465316E0,-5.613282556E-4,1.081632334E-3,1.045599231E-3
2.752521358E0,-5.613282556E-4,1.614264096E-3,1.578230876E-3
2.757577452E0,2.101830672E-3,5.490005715E-4,-2.150191227E-3
2.762633546E0,5.039352691E-4,1.081632334E-3,-1.966441050E-5
2.767787348E0,-5.613282556E-4,1.614264096E-3,1.045599231E-3
2.772843389E0,1.036567031E-3,5.490005715E-4,1.578230876E-3
2.777899483E0,3.699725959E-3,1.614264096E-3,3.176126163E-3
2.782955577E0,2.101830672E-3,1.614264096E-3,1.578230876E-3
2.788011671E0,5.039352691E-4,1.636878005E-5,1.045599231E-3
2.793067712E0,1.036567031E-3,5.490005715E-4,5.129674682E-4
2.798040316E0,1.036567031E-3,2.679527504E-3,5.129674682E-4
2.803096358E0,-2.159223426E-3,1.081632334E-3,-1.966441050E-5
2.808152452E0,-5.613282556E-4,1.081632334E-3,1.045599231E-3
2.813208546E0,2.634462435E-3,1.636878005E-5,-1.966441050E-5
2.818264639E0,1.569198794E-3,5.490005715E-4,1.578230876E-3
2.823320733E0,1.036567031E-3,5.490005715E-4,1.045599231E-3
2.828401879E0,2.101830672E-3,1.081632334E-3,5.129674682E-4
2.833457921E0,5.039352691E-4,1.636878005E-5,2.110862639E-3
2.838514014E0,2.634462435E-3,5.490005715E-4,-1.084927935E-3
2.843570108E0,1.036567031E-3,1.636878005E-5,-5.522961728E-4
2.848626202E0,-5.613282556E-4,-5.162634188E-4,2.110862639E-3
2.853682243E0,5.039352691E-4,1.636878005E-5,1.045599231E-3
2.858755681E0,-5.613282556E-4,1.614264096E-3,5.129674682E-4
2.863811723E0,1.569198794E-3,1.081632334E-3,5.129674682E-4
2.868867816E0,1.569198794E-3,1.081632334E-3,1.578230876E-3
2.873923910E0,1.036567031E-3,2.146895742E-3,5.129674682E-4
2.878980004E0,2.634462435E-3,-5.162634188E-4,-1.966441050E-5
2.884036046E0,1.036567031E-3,1.636878005E-5,1.578230876E-3
2.889099900E0,3.167094197E-3,-1.581526478E-3,5.129674682E-4
2.894155993E0,3.167094197E-3,2.679527504E-3,2.110862639E-3
2.899212035E0,2.634462435E-3,1.614264096E-3,1.578230876E-3
2.904268129E0,5.039352691E-4,1.081632334E-3,2.643494401E-3
2.909324223E0,4.232357722E-3,5.490005715E-4,1.045599231E-3
2.914380264E0,5.039352691E-4,1.636878005E-5,5.129674682E-4
2.919443910E0,1.036567031E-3,1.636878005E-5,-1.084927935E-3
2.924499952E0,4.232357722E-3,-1.048894715E-3,5.129674682E-4
2.929556046E0,3.167094197E-3,1.636878005E-5,3.708757926E-3
2.934612139E0,1.036567031E-3,1.636878005E-5,-1.966441050E-5
2.939668233E0,1.569198794E-3,5.490005715E-4,-5.522961728E-4
2.944724275E0,2.101830672E-3,5.490005715E-4,1.578230876E-3
2.949767660E0,2.101830672E-3,1.614264096E-3,1.578230876E-3
2.954823754E0,3.167094197E-3,-1.048894715E-3,-1.084927935E-3
2.959879848E0,1.036567031E-3,1.081632334E-3,1.045599231E-3
2.964935941E0,1.036567031E-3,1.614264096E-3,1.045599231E-3
2.969991983E0,5.039352691E-4,1.636878005E-5,-5.522961728E-4
2.975048077E0,1.036567031E-3,5.490005715E-4,1.045599231E-3
2.980120941E0,3.167094197E-3,1.614264096E-3,-1.084927935E-3
2.985177035E0,2.101830672E-3,2.146895742E-3,-1.966441050E-5
2.990233129E0,-2.869649325E-5,1.081632334E-3,2.643494401E-3
2.995289171E0,2.101830672E-3,1.081632334E-3,1.045599231E-3
3.000345264E0,2.101830672E-3,1.614264096E-3,-1.084927935E-3
3.005401358E0,1.036567031E-3,1.636878005E-5,5.129674682E-4
3.010483441E0,1.036567031E-3,5.490005715E-4,5.129674682E-4
3.015539483E0,1.036567031E-3,1.614264096E-3,2.110862639E-3
3.020595577E0,-5.613282556E-4,5.490005715E-4,1.578230876E-3
3.025651671E0,-5.613282556E-4,5.490005715E-4,1.578230876E-3
3.030707764E0,-1.093959552E-3,1.081632334E-3,1.578230876E-3
3.035763806E0,1.569198794E-3,2.146895742E-3,5.129674682E-4
3.040830160E0,4.232357722E-3,1.081632334E-3,1.045599231E-3
3.045886202E0,2.101830672E-3,5.490005715E-4,2.643494401E-3
3.050942296E0,3.167094197E-3,1.081632334E-3,-1.084927935E-3
3.055998389E0,-5.613282556E-4,-5.162634188E-4,5.129674682E-4
3.061054483E0,2.634462435E-3,-1.048894715E-3,-1.966441050E-5
3.066110525E0,3.167094197E-3,1.614264096E-3,1.045599231E-3
3.071176410E0,1.036567031E-3,1.636878005E-5,5.129674682E-4
3.076232504E0,3.167094197E-3,1.636878005E-5,5.129674682E-4
3.081288598E0,4.764989484E-3,1.614264096E-3,5.129674682E-4
3.086344691E0,5.039352691E-4,2.146895742E-3,1.045599231E-3
3.091400785E0,-5.613282556E-4,2.146895742E-3,2.110862639E-3
3.096456827E0,-2.869649325E-5,2.679527504E-3,5.129674682E-4
3.101523285E0,1.036567031E-3,3.744791029E-3,1.578230876E-3
3.106579327E0,-2.869649325E-5,2.146895742E-3,-5.522961728E-4
3.111635421E0,-2.869649325E-5,-5.162634188E-4,1.578230876E-3
3.116691514E0,3.167094197E-3,2.146895742E-3,2.110862639E-3
3.121747556E0,2.101830672E-3,2.679527504E-3,-1.966441050E-5
3.126803650E0,1.569198794E-3,5.490005715E-4,1.578230876E-3
3.131881618E0,-1.093959552E-3,1.614264096E-3,1.045599231E-3
3.136939171E0,-2.159223426E-3,5.490005715E-4,-1.966441050E-5
3.141996723E0,2.101830672E-3,5.490005715E-4,1.045599231E-3
3.147054223E0,-2.869649325E-5,1.614264096E-3,5.129674682E-4
3.152111775E0,2.101830672E-3,2.679527504E-3,-1.084927935E-3
3.157169327E0,2.101830672E-3,2.146895742E-3,1.578230876E-3
3.162200681E0,1.036567031E-3,1.081632334E-3,2.643494401E-3
3.167258233E0,5.039352691E-4,1.081632334E-3,2.643494401E-3
3.172315733E0,5.039352691E-4,1.636878005E-5,1.045599231E-3
3.177373285E0,1.036567031E-3,1.636878005E-5,-1.966441050E-5
3.182430837E0,-1.626591780E-3,5.490005715E-4,1.578230876E-3
3.187488337E0,5.039352691E-4,-5.162634188E-4,1.578230876E-3
3.192550629E0,1.569198794E-3,2.146895742E-3,2.643494401E-3
3.197608181E0,1.036567031E-3,2.146895742E-3,2.643494401E-3
3.202665681E0,2.101830672E-3,-5.162634188E-4,2.643494401E-3
3.207723233E0,3.167094197E-3,-5.162634188E-4,5.129674682E-4
3.212780733E0,5.039352691E-4,5.490005715E-4,1.578230876E-3
3.217838285E0,2.634462435E-3,1.081632334E-3,2.110862639E-3
3.222888129E0,-2.869649325E-5,5.490005715E-4,5.129674682E-4
3.227945681E0,1.036567031E-3,1.081632334E-3,2.110862639E-3
3.233003181E0,1.036567031E-3,1.081632334E-3,2.110862639E-3
3.238060733E0,-5.613282556E-4,1.614264096E-3,1.578230876E-3
3.243118233E0,2.634462435E-3,1.614264096E-3,1.578230876E-3
3.248175785E0,3.699725959E-3,2.679527504E-3,1.578230876E-3
3.253257035E0,1.036567031E-3,2.146895742E-3,-1.966441050E-5
3.258314587E0,5.039352691E-4,1.081632334E-3,-5.522961728E-4
3.263372139E0,2.101830672E-3,1.081632334E-3,1.578230876E-3
3.268429639E0,5.039352691E-4,1.614264096E-3,5.129674682E-4
3.273487191E0,1.036567031E-3,1.081632334E-3,-1.084927935E-3
3.278544743E0,-2.869649325E-5,5.490005715E-4,5.129674682E-4
3.283603493E0,4.232357722E-3,2.679527504E-3,-1.084927935E-3
3.288661046E0,3.167094197E-3,2.146895742E-3,1.578230876E-3
3.293718598E0,5.039352691E-4,1.081632334E-3,2.110862639E-3
3.298776150E0,5.039352691E-4,5.490005715E-4,1.045599231E-3
3.303833650E0,-2.869649325E-5,1.636878005E-5,1.578230876E-3
3.308891202E0,-5.613282556E-4,2.146895742E-3,1.578230876E-3
3.313945264E0,2.101830672E-3,-5.162634188E-4,1.578230876E-3
3.319002816E0,1.569198794E-3,5.490005715E-4,2.110862639E-3
3.324060368E0,-5.613282556E-4,5.490005715E-4,2.110862639E-3
3.329117868E0,2.101830672E-3,1.636878005E-5,-5.522961728E-4
3.334175421E0,-2.869649325E-5,-5.162634188E-4,-1.617559465E-3
3.339232973E0,1.569198794E-3,1.081632334E-3,-1.966441050E-5
3.344277400E0,1.036567031E-3,1.614264096E-3,-5.522961728E-4
3.349334952E0,1.036567031E-3,1.636878005E-5,1.045599231E-3
3.354392504E0,-2.869649325E-5,5.490005715E-4,5.129674682E-4
3.359450004E0,5.039352691E-4,1.636878005E-5,1.045599231E-3
3.364507556E0,2.634462435E-3,5.490005715E-4,-5.522961728E-4
3.369565056E0,3.699725959E-3,1.081632334E-3,-1.617559465E-3
3.374651671E0,1.569198794E-3,2.146895742E-3,-1.966441050E-5
3.379709223E0,1.036567031E-3,1.081632334E-3,-1.084927935E-3
3.384766775E0,1.036567031E-3,-1.048894715E-3,5.129674682E-4
3.389824275E0,-2.869649325E-5,1.614264096E-3,-1.084927935E-3
3.394881827E0,1.569198794E-3,2.146895742E-3,5.129674682E-4
3.399939379E0,5.039352691E-4,1.614264096E-3,2.110862639E-3
3.404987608E0,2.101830672E-3,1.636878005E-5,1.578230876E-3
3.410045108E0,2.634462435E-3,1.081632334E-3,5.129674682E-4
3.415102660E0,1.036567031E-3,-1.048894715E-3,1.578230876E-3
3.420160160E0,3.699725959E-3,1.614264096E-3,5.129674682E-4
3.425217764E0,2.101830672E-3,5.490005715E-4,2.110862639E-3
3.430275264E0,-5.613282556E-4,1.614264096E-3,2.110862639E-3
3.435353285E0,1.036567031E-3,1.636878005E-5,-1.966441050E-5
3.440410785E0,2.634462435E-3,1.636878005E-5,-5.522961728E-4
3.445468337E0,2.634462435E-3,1.081632334E-3,5.129674682E-4
3.450525837E0,1.569198794E-3,2.679527504E-3,2.643494401E-3
3.455583441E0,5.039352691E-4,1.081632334E-3,1.578230876E-3
3.460640941E0,1.036567031E-3,1.636878005E-5,5.129674682E-4
3.465683129E0,4.232357722E-3,5.490005715E-4,-1.617559465E-3
3.470740629E0,2.101830672E-3,1.614264096E-3,5.129674682E-4
3.475798181E0,3.167094197E-3,2.679527504E-3,1.578230876E-3
3.480855681E0,2.634462435E-3,-5.162634188E-4,-5.522961728E-4
3.485913233E0,5.039352691E-4,5.490005715E-4,1.045599231E-3
3.490970785E0,3.167094197E-3,5.490005715E-4,5.129674682E-4
3.496030368E0,3.167094197E-3,1.081632334E-3,-5.522961728E-4
3.501087921E0,1.569198794E-3,2.146895742E-3,1.045599231E-3
3.506145473E0,3.699725959E-3,1.081632334E-3,-1.084927935E-3
3.511202973E0,1.036567031E-3,1.081632334E-3,5.129674682E-4
3.516260525E0,-5.613282556E-4,1.636878005E-5,5.129674682E-4
3.521318077E0,5.039352691E-4,1.636878005E-5,-1.617559465E-3
3.526377087E0,1.036567031E-3,5.490005715E-4,-1.966441050E-5
3.531434639E0,5.039352691E-4,5.490005715E-4,1.045599231E-3
3.536492191E0,-2.869649325E-5,1.614264096E-3,5.129674682E-4
3.541549691E0,3.167094197E-3,1.614264096E-3,1.578230876E-3
3.546607243E0,1.569198794E-3,5.490005715E-4,5.129674682E-4
3.551664796E0,5.039352691E-4,1.636878005E-5,-5.522961728E-4
3.556731202E0,2.101830672E-3,2.679527504E-3,-1.966441050E-5
3.561788754E0,1.569198794E-3,1.081632334E-3,2.643494401E-3
3.566846306E0,1.036567031E-3,5.490005715E-4,1.578230876E-3
3.571903806E0,2.101830672E-3,2.146895742E-3,1.045599231E-3
3.576961358E0,-2.869649325E-5,3.212158335E-3,1.578230876E-3
3.582018910E0,-1.626591780E-3,1.614264096E-3,-1.966441050E-5
3.587084118E0,2.101830672E-3,5.490005715E-4,-1.084927935E-3
3.592141671E0,3.167094197E-3,1.081632334E-3,1.578230876E-3
3.597199171E0,3.167094197E-3,-1.048894715E-3,1.578230876E-3
3.602256723E0,3.167094197E-3,-1.048894715E-3,5.129674682E-4
3.607314223E0,1.569198794E-3,1.636878005E-5,2.110862639E-3
3.612371775E0,-5.613282556E-4,5.490005715E-4,3.176126163E-3
3.617505004E0,2.634462435E-3,1.614264096E-3,-1.617559465E-3
3.622562608E0,-2.869649325E-5,2.146895742E-3,1.578230876E-3
3.627620108E0,1.036567031E-3,1.081632334E-3,2.643494401E-3
3.632677608E0,5.039352691E-4,5.490005715E-4,-5.522961728E-4
3.637735160E0,3.699725959E-3,2.146895742E-3,1.578230876E-3
3.642792712E0,2.101830672E-3,2.146895742E-3,1.578230876E-3
3.647770473E0,5.039352691E-4,1.614264096E-3,2.110862639E-3
3.652828025E0,-5.613282556E-4,5.490005715E-4,2.110862639E-3
3.657885577E0,1.569198794E-3,3.212158335E-3,1.578230876E-3
3.662943077E0,2.101830672E-3,1.614264096E-3,1.578230876E-3
3.668000629E0,1.569198794E-3,3.212158335E-3,-1.966441050E-5
3.673058181E0,1.036567031E-3,5.490005715E-4,5.129674682E-4
3.678127504E0,1.036567031E-3,5.490005715E-4,3.176126163E-3
3.683185056E0,-2.869649325E-5,1.636878005E-5,1.578230876E-3
3.688242608E0,2.101830672E-3,-1.581526478E-3,-1.966441050E-5
3.693300108E0,5.039352691E-4,5.490005715E-4,2.110862639E-3
3.698357660E0,2.101830672E-3,2.679527504E-3,5.129674682E-4
3.703415212E0,1.569198794E-3,5.490005715E-4,5.129674682E-4
3.708445316E0,2.634462435E-3,2.679527504E-3,1.578230876E-3
3.713502868E0,4.232357722E-3,1.081632334E-3,-2.150191227E-3
3.718560421E0,1.569198794E-3,1.636878005E-5,-1.084927935E-3
3.723617921E0,2.101830672E-3,-1.048894715E-3,1.045599231E-3
3.728675473E0,2.101830672E-3,1.614264096E-3,2.110862639E-3
3.733733025E0,1.036567031E-3,2.146895742E-3,1.045599231E-3
3.738849639E0,1.569198794E-3,1.081632334E-3,2.110862639E-3
3.743907191E0,5.039352691E-4,5.490005715E-4,2.643494401E-3
3.748964691E0,-2.869649325E-5,5.490005715E-4,-5.522961728E-4
3.754022243E0,-1.626591780E-3,1.636878005E-5,-2.150191227E-3
3.759079796E0,5.039352691E-4,1.614264096E-3,-1.617559465E-3
3.764137296E0,4.232357722E-3,5.490005715E-4,1.045599231E-3
3.769131462E0,2.634462435E-3,1.614264096E-3,2.110862639E-3
3.774189014E0,5.039352691E-4,5.490005715E-4,1.045599231E-3
3.779246514E0,-1.093959552E-3,1.636878005E-5,5.129674682E-4
3.784304066E0,1.036567031E-3,1.636878005E-5,1.045599231E-3
3.789361618E0,2.634462435E-3,5.490005715E-4,-5.522961728E-4
3.794419171E0,5.039352691E-4,1.614264096E-3,5.129674682E-4
3.799497608E0,1.569198794E-3,1.614264096E-3,1.045599231E-3
3.804555160E0,2.101830672E-3,1.636878005E-5,5.129674682E-4
3.809612712E0,2.634462435E-3,1.614264096E-3,1.045599231E-3
3.814670264E0,-2.869649325E-5,1.614264096E-3,-1.084927935E-3
3.819727764E0,2.101830672E-3,-1.048894715E-3,-1.966441050E-5
3.824785316E0,4.764989484E-3,1.636878005E-5,5.129674682E-4
3.829844952E0,1.569198794E-3,1.081632334E-3,2.643494401E-3
3.834902504E0,3.167094197E-3,1.081632334E-3,1.578230876E-3
3.839960056E0,2.101830672E-3,1.636878005E-5,1.045599231E-3
3.845017608E0,1.569198794E-3,1.081632334E-3,1.045599231E-3
3.850075108E0,5.039352691E-4,5.490005715E-4,1.045599231E-3
3.855132660E0,-1.093959552E-3,1.081632334E-3,5.129674682E-4
3.860190473E0,-1.626591780E-3,1.614264096E-3,1.045599231E-3
3.865248025E0,-5.613282556E-4,1.614264096E-3,1.045599231E-3
3.870305577E0,3.167094197E-3,1.614264096E-3,-5.522961728E-4
3.875363077E0,1.569198794E-3,5.490005715E-4,1.578230876E-3
3.880420629E0,-2.159223426E-3,1.081632334E-3,1.578230876E-3
3.885478181E0,3.699725959E-3,1.614264096E-3,5.129674682E-4
3.890523910E0,2.101830672E-3,1.081632334E-3,1.578230876E-3
3.895581462E0,2.101830672E-3,1.636878005E-5,1.578230876E-3
3.900638962E0,1.569198794E-3,1.614264096E-3,-5.522961728E-4
3.905696514E0,2.101830672E-3,1.614264096E-3,-1.966441050E-5
3.910754014E0,1.569198794E-3,1.614264096E-3,2.110862639E-3
3.915811566E0,5.039352691E-4,5.490005715E-4,2.643494401E-3
3.920871098E0,3.167094197E-3,2.146895742E-3,1.045599231E-3
3.925928650E0,6.895516533E-3,1.081632334E-3,2.643494401E-3
3.930986150E0,4.232357722E-3,5.490005715E-4,2.643494401E-3
3.936043702E0,-2.869649325E-5,5.490005715E-4,2.110862639E-3
3.941101202E0,1.036567031E-3,1.614264096E-3,1.045599231E-3
3.946158754E0,1.569198794E-3,-1.048894715E-3,2.643494401E-3
3.951217243E0,-5.613282556E-4,-1.048894715E-3,1.578230876E-3
3.956274796E0,5.039352691E-4,-5.162634188E-4,5.129674682E-4
3.961332296E0,1.036567031E-3,1.081632334E-3,-1.966441050E-5
3.966389848E0,2.634462435E-3,2.146895742E-3,5.129674682E-4
3.971447348E0,2.101830672E-3,5.490005715E-4,1.045599231E-3
3.976504900E0,1.036567031E-3,2.679527504E-3,5.129674682E-4
3.981565889E0,-2.869649325E-5,2.146895742E-3,5.129674682E-4
3.986623441E0,1.569198794E-3,5.490005715E-4,1.045599231E-3
3.991680941E0,1.036567031E-3,-1.048894715E-3,2.643494401E-3
3.996738493E0,3.167094197E-3,2.679527504E-3,2.643494401E-3
4.001795993E0,-5.613282556E-4,1.614264096E-3,1.045599231E-3
4.006853546E0,1.569198794E-3,1.636878005E-5,5.129674682E-4
4.011925421E0,3.167094197E-3,1.636878005E-5,1.045599231E-3
4.016982921E0,1.036567031E-3,-1.048894715E-3,1.045599231E-3
4.022040473E0,1.569198794E-3,-5.162634188E-4,1.045599231E-3
4.027097973E0,3.167094197E-3,5.490005715E-4,-5.522961728E-4
4.032155525E0,1.569198794E-3,1.636878005E-5,2.110862639E-3
4.037213077E0,1.036567031E-3,1.081632334E-3,1.578230876E-3
4.042271202E0,-5.613282556E-4,2.146895742E-3,5.129674682E-4
4.047328754E0,1.569198794E-3,3.212158335E-3,5.129674682E-4
4.052386306E0,5.039352691E-4,-1.048894715E-3,2.110862639E-3
4.057443806E0,3.167094197E-3,1.081632334E-3,5.129674682E-4
4.062501358E0,3.167094197E-3,2.146895742E-3,-5.522961728E-4
4.067558910E0,1.036567031E-3,2.146895742E-3,1.578230876E-3
4.072617452E0,1.036567031E-3,1.614264096E-3,1.045599231E-3
4.077675004E0,5.039352691E-4,-5.162634188E-4,2.643494401E-3
4.082732556E0,2.634462435E-3,5.490005715E-4,5.129674682E-4
4.087790056E0,1.036567031E-3,2.146895742E-3,2.110862639E-3
4.092847608E0,2.101830672E-3,2.679527504E-3,1.578230876E-3
4.097905160E0,1.036567031E-3,1.614264096E-3,2.110862639E-3
4.102964535E0,-5.613282556E-4,1.081632334E-3,-1.966441050E-5
4.108022087E0,2.634462435E-3,2.146895742E-3,1.045599231E-3
4.113079639E0,5.039352691E-4,1.614264096E-3,1.045599231E-3
4.118137139E0,-5.613282556E-4,2.146895742E-3,5.129674682E-4
4.123194691E0,-2.869649325E-5,5.490005715E-4,-1.966441050E-5
4.128252243E0,-2.869649325E-5,2.146895742E-3,1.045599231E-3
4.133298129E0,1.036567031E-3,1.614264096E-3,1.045599231E-3
4.138355785E0,2.101830672E-3,5.490005715E-4,2.110862639E-3
4.143413389E0,-2.869649325E-5,5.490005715E-4,1.045599231E-3
4.148471046E0,-2.869649325E-5,2.146895742E-3,-1.966441050E-5
4.153528650E0,2.101830672E-3,1.614264096E-3,1.578230876E-3
4.158586306E0,3.167094197E-3,5.490005715E-4,5.129674682E-4
4.163637191E0,4.764989484E-3,1.614264096E-3,-2.150191227E-3
4.168694848E0,5.039352691E-4,2.146895742E-3,-1.084927935E-3
4.173752452E0,2.634462435E-3,2.146895742E-3,-5.522961728E-4
4.178810108E0,1.036567031E-3,1.614264096E-3,-1.966441050E-5
4.183867712E0,1.569198794E-3,1.081632334E-3,-1.084927935E-3
4.188925368E0,2.634462435E-3,3.744791029E-3,5.129674682E-4
4.193991358E0,2.101830672E-3,3.212158335E-3,2.110862639E-3
4.199049014E0,4.232357722E-3,1.614264096E-3,2.110862639E-3
4.204106618E0,1.569198794E-3,1.614264096E-3,-5.522961728E-4
4.209164275E0,1.569198794E-3,2.146895742E-3,-1.617559465E-3
4.214221879E0,-5.613282556E-4,1.636878005E-5,1.045599231E-3
4.219279535E0,-5.613282556E-4,-1.048894715E-3,1.578230876E-3
4.224337139E0,-5.613282556E-4,1.636878005E-5,1.578230876E-3
4.229394796E0,-5.613282556E-4,5.490005715E-4,2.110862639E-3
4.234452400E0,2.634462435E-3,5.490005715E-4,2.110862639E-3
4.239510056E0,2.101830672E-3,2.146895742E-3,5.129674682E-4
4.244567660E0,2.101830672E-3,2.679527504E-3,-2.150191227E-3
4.249625316E0,2.634462435E-3,1.614264096E-3,2.110862639E-3
4.254699639E0,4.232357722E-3,1.081632334E-3,5.129674682E-4
4.259757243E0,1.569198794E-3,1.636878005E-5,1.045599231E-3
4.264814900E0,2.101830672E-3,1.614264096E-3,1.578230876E-3
4.269872504E0,3.167094197E-3,2.146895742E-3,1.578230876E-3
4.274930160E0,2.634462435E-3,1.614264096E-3,5.129674682E-4
4.279987764E0,3.699725959E-3,2.146895742E-3,-1.966441050E-5
4.285063337E0,3.699725959E-3,4.277423024E-3,1.045599231E-3
4.290120941E0,2.101830672E-3,1.081632334E-3,2.110862639E-3
4.295178598E0,-1.093959552E-3,1.081632334E-3,3.176126163E-3
4.300236202E0,1.036567031E-3,1.081632334E-3,1.045599231E-3
4.305293858E0,3.167094197E-3,1.636878005E-5,-2.150191227E-3
4.310351462E0,1.036567031E-3,1.636878005E-5,1.045599231E-3
4.315392973E0,-2.869649325E-5,2.146895742E-3,-1.966441050E-5
4.320450577E0,2.634462435E-3,2.146895742E-3,1.045599231E-3
4.325508233E0,-5.613282556E-4,1.614264096E-3,1.578230876E-3
4.330565837E0,1.569198794E-3,5.490005715E-4,2.110862639E-3
4.335623441E0,5.039352691E-4,1.614264096E-3,2.643494401E-3
4.340681098E0,-2.869649325E-5,5.490005715E-4,-5.522961728E-4
4.345768077E0,-5.613282556E-4,-5.162634188E-4,1.578230876E-3
4.350825681E0,1.036567031E-3,1.636878005E-5,2.643494401E-3
4.355883337E0,2.634462435E-3,-5.162634188E-4,-1.966441050E-5
4.360940941E0,1.569198794E-3,1.636878005E-5,-5.522961728E-4
4.365998598E0,1.036567031E-3,1.614264096E-3,5.129674682E-4
4.371056202E0,1.569198794E-3,2.679527504E-3,-1.084927935E-3
4.376119848E0,-1.093959552E-3,5.490005715E-4,-1.084927935E-3
4.381177452E0,-3.224486951E-3,5.490005715E-4,-5.522961728E-4
4.386235108E0,-5.613282556E-4,1.614264096E-3,-1.617559465E-3
4.391292764E0,2.101830672E-3,1.636878005E-5,1.045599231E-3
4.396350368E0,2.634462435E-3,1.636878005E-5,1.045599231E-3
4.401408025E0,1.036567031E-3,-1.581526478E-3,1.578230876E-3
4.406417139E0,1.036567031E-3,5.490005715E-4,2.643494401E-3
4.411474796E0,2.634462435E-3,1.081632334E-3,-1.617559465E-3
4.416532400E0,-2.869649325E-5,1.614264096E-3,5.129674682E-4
4.421590056E0,-5.613282556E-4,5.490005715E-4,5.129674682E-4
4.426647660E0,1.569198794E-3,1.614264096E-3,1.045599231E-3
4.431705316E0,5.039352691E-4,1.081632334E-3,2.643494401E-3
4.436785108E0,1.036567031E-3,1.636878005E-5,1.045599231E-3
4.441842764E0,1.036567031E-3,5.490005715E-4,5.129674682E-4
4.446900368E0,-5.613282556E-4,-1.048894715E-3,1.578230876E-3
4.451958025E0,1.569198794E-3,1.636878005E-5,-1.966441050E-5
4.457015629E0,5.039352691E-4,5.490005715E-4,1.578230876E-3
4.462073285E0,1.569198794E-3,1.614264096E-3,-1.966441050E-5
4.467170629E0,-5.613282556E-4,4.277423024E-3,1.045599231E-3
4.472228233E0,5.039352691E-4,2.146895742E-3,-1.966441050E-5
4.477285889E0,5.039352691E-4,1.636878005E-5,1.045599231E-3
4.482343493E0,1.569198794E-3,1.081632334E-3,-5.522961728E-4
4.487401150E0,5.039352691E-4,2.146895742E-3,1.578230876E-3
4.492458754E0,-2.869649325E-5,1.081632334E-3,5.129674682E-4
4.497503650E0,4.764989484E-3,3.212158335E-3,-1.966441050E-5
4.502561254E0,2.634462435E-3,1.081632334E-3,5.129674682E-4
4.507618910E0,1.569198794E-3,3.212158335E-3,-1.966441050E-5
4.512676514E0,-5.613282556E-4,2.679527504E-3,-1.966441050E-5
4.517734171E0,3.699725959E-3,5.490005715E-4,-1.084927935E-3
4.522791775E0,3.699725959E-3,-5.162634188E-4,-1.617559465E-3
4.527836254E0,2.101830672E-3,1.636878005E-5,1.045599231E-3
4.532893858E0,1.036567031E-3,1.081632334E-3,-5.522961728E-4
4.537951514E0,-1.093959552E-3,1.081632334E-3,5.129674682E-4
4.543009118E0,-2.869649325E-5,1.081632334E-3,2.110862639E-3
4.548066775E0,1.036567031E-3,1.081632334E-3,1.578230876E-3
4.553124379E0,1.036567031E-3,2.679527504E-3,1.045599231E-3
4.558156306E0,1.569198794E-3,1.081632334E-3,2.110862639E-3
4.563213910E0,2.634462435E-3,1.614264096E-3,1.045599231E-3
4.568271566E0,3.167094197E-3,1.081632334E-3,-1.966441050E-5
4.573329223E0,2.101830672E-3,2.146895742E-3,1.045599231E-3
4.578386827E0,1.569198794E-3,1.636878005E-5,1.045599231E-3
4.583444483E0,1.569198794E-3,1.614264096E-3,-1.966441050E-5
4.588514066E0,-1.093959552E-3,1.636878005E-5,5.129674682E-4
4.593571671E0,1.036567031E-3,5.490005715E-4,3.176126163E-3
4.598629327E0,-5.613282556E-4,1.081632334E-3,1.045599231E-3
4.603686931E0,5.039352691E-4,1.636878005E-5,5.129674682E-4
4.608744587E0,2.101830672E-3,1.636878005E-5,-1.966441050E-5
4.613802191E0,2.634462435E-3,-5.162634188E-4,-5.522961728E-4
4.618850004E0,2.101830672E-3,1.614264096E-3,5.129674682E-4
4.623907660E0,-2.869649325E-5,1.081632334E-3,1.578230876E-3
4.628965316E0,-2.869649325E-5,2.679527504E-3,-1.966441050E-5
4.634022921E0,5.039352691E-4,2.146895742E-3,-1.617559465E-3
4.639080577E0,1.036567031E-3,1.081632334E-3,-5.522961728E-4
4.644138181E0,2.634462435E-3,1.636878005E-5,5.129674682E-4
4.649206202E0,5.039352691E-4,-5.162634188E-4,1.578230876E-3
4.654263806E0,5.039352691E-4,5.490005715E-4,-1.966441050E-5
4.659321462E0,2.634462435E-3,-5.162634188E-4,-5.522961728E-4
4.664379118E0,2.101830672E-3,1.636878005E-5,-5.522961728E-4
4.669436723E0,1.036567031E-3,1.081632334E-3,1.578230876E-3
4.674494379E0,1.036567031E-3,2.146895742E-3,5.129674682E-4
4.679547452E0,1.036567031E-3,2.679527504E-3,5.129674682E-4
4.684605108E0,1.036567031E-3,5.490005715E-4,-1.966441050E-5
4.689662712E0,1.569198794E-3,2.146895742E-3,-5.522961728E-4
4.694720368E0,1.036567031E-3,1.636878005E-5,3.708757926E-3
4.699777973E0,3.699725959E-3,1.081632334E-3,3.176126163E-3
4.704835629E0,2.634462435E-3,2.146895742E-3,1.045599231E-3
4.709913806E0,1.569198794E-3,1.081632334E-3,-1.966441050E-5
4.714971410E0,1.569198794E-3,2.679527504E-3,-1.966441050E-5
4.720029066E0,3.699725959E-3,5.490005715E-4,5.129674682E-4
4.725086671E0,1.569198794E-3,1.636878005E-5,1.045599231E-3
4.730144327E0,1.036567031E-3,3.212158335E-3,5.129674682E-4
4.735201983E0,-1.093959552E-3,2.679527504E-3,2.110862639E-3
4.740224171E0,2.634462435E-3,5.490005715E-4,5.129674682E-4
4.745281775E0,3.167094197E-3,-1.048894715E-3,1.045599231E-3
4.750339431E0,2.101830672E-3,-1.581526478E-3,1.045599231E-3
4.755397087E0,2.101830672E-3,1.081632334E-3,2.110862639E-3
4.760454691E0,5.039352691E-4,1.614264096E-3,-1.617559465E-3
4.765512348E0,-5.613282556E-4,1.081632334E-3,-1.966441050E-5
4.770594796E0,5.039352691E-4,1.081632334E-3,2.110862639E-3
4.775652400E0,1.036567031E-3,1.614264096E-3,1.045599231E-3
4.780710056E0,-5.613282556E-4,1.636878005E-5,2.643494401E-3
4.785767712E0,-1.626591780E-3,1.636878005E-5,5.129674682E-4
4.790825316E0,1.036567031E-3,1.081632334E-3,5.129674682E-4
4.795882921E0,2.634462435E-3,5.490005715E-4,2.110862639E-3
4.800941254E0,1.036567031E-3,1.081632334E-3,2.643494401E-3
4.805998858E0,1.569198794E-3,2.146895742E-3,1.045599231E-3
4.811056514E0,2.634462435E-3,5.490005715E-4,-1.966441050E-5
4.816114118E0,1.569198794E-3,1.614264096E-3,1.578230876E-3
4.821171775E0,1.036567031E-3,1.636878005E-5,2.110862639E-3
4.826229379E0,-5.613282556E-4,-5.162634188E-4,2.643494401E-3
4.831285160E0,-2.869649325E-5,1.636878005E-5,1.578230876E-3
4.836342764E0,-1.626591780E-3,1.636878005E-5,1.045599231E-3
4.841400368E0,-1.093959552E-3,1.636878005E-5,1.045599231E-3
4.846458025E0,2.101830672E-3,2.146895742E-3,2.110862639E-3
4.851515681E0,5.039352691E-4,5.490005715E-4,-5.522961728E-4
4.856573285E0,-2.869649325E-5,1.636878005E-5,-1.966441050E-5
4.861633337E0,-2.869649325E-5,5.490005715E-4,-1.617559465E-3
4.866690941E0,3.699725959E-3,5.490005715E-4,-3.215454752E-3
4.871748598E0,3.167094197E-3,3.212158335E-3,-1.966441050E-5
4.876806202E0,2.634462435E-3,5.490005715E-4,3.708757926E-3
4.881863858E0,1.036567031E-3,-5.162634188E-4,3.176126163E-3
4.886921462E0,5.039352691E-4,5.490005715E-4,1.578230876E-3
4.891966514E0,-2.869649325E-5,1.081632334E-3,1.578230876E-3
4.897024118E0,1.569198794E-3,-5.162634188E-4,1.045599231E-3
4.902081775E0,1.569198794E-3,1.636878005E-5,2.643494401E-3
4.907139431E0,1.569198794E-3,1.614264096E-3,2.110862639E-3
4.912197035E0,2.101830672E-3,5.490005715E-4,2.643494401E-3
4.917254691E0,1.036567031E-3,1.081632334E-3,5.129674682E-4
4.922304118E0,-1.626591780E-3,1.081632334E-3,-1.084927935E-3
4.927361775E0,-5.613282556E-4,-5.162634188E-4,-5.522961728E-4
4.932419379E0,-1.626591780E-3,-1.048894715E-3,2.643494401E-3
4.937477035E0,-2.869649325E-5,1.636878005E-5,5.129674682E-4
4.942534639E0,5.039352691E-4,2.146895742E-3,3.176126163E-3
4.947592296E0,-2.869649325E-5,1.636878005E-5,1.045599231E-3
4.952709014E0,5.039352691E-4,3.744791029E-3,5.129674682E-4
4.957766671E0,2.101830672E-3,2.146895742E-3,1.578230876E-3
4.962824275E0,2.634462435E-3,1.636878005E-5,2.110862639E-3
4.967881931E0,1.036567031E-3,1.636878005E-5,1.578230876E-3
4.972939535E0,5.039352691E-4,1.636878005E-5,1.578230876E-3
4.977997191E0,5.039352691E-4,1.614264096E-3,1.578230876E-3
4.982999327E0,1.569198794E-3,1.081632334E-3,1.578230876E-3
4.988056983E0,1.569198794E-3,5.490005715E-4,-1.084927935E-3
4.993114587E0,5.039352691E-4,1.614264096E-3,5.129674682E-4
4.998172243E0,5.039352691E-4,1.614264096E-3,2.110862639E-3
5.003229848E0,1.036567031E-3,-5.162634188E-4,-1.084927935E-3
5.008287504E0,-2.869649325E-5,1.081632334E-3,5.129674682E-4
5.013379118E0,3.167094197E-3,2.146895742E-3,2.110862639E-3
5.018436723E0,2.634462435E-3,1.614264096E-3,2.110862639E-3
5.023494379E0,5.039352691E-4,1.636878005E-5,2.110862639E-3
5.028551983E0,-2.869649325E-5,2.679527504E-3,2.110862639E-3
5.033609639E0,2.101830672E-3,1.614264096E-3,5.129674682E-4
5.038667243E0,1.569198794E-3,5.490005715E-4,-1.966441050E-5
5.043694171E0,5.039352691E-4,3.212158335E-3,1.045599231E-3
5.048751827E0,2.101830672E-3,1.081632334E-3,-1.966441050E-5
5.053809431E0,2.634462435E-3,5.490005715E-4,-1.966441050E-5
5.058867087E0,2.101830672E-3,1.614264096E-3,-1.966441050E-5
5.063924691E0,2.101830672E-3,1.636878005E-5,2.110862639E-3
5.068982348E0,1.569198794E-3,5.490005715E-4,2.110862639E-3
5.074059900E0,3.699725959E-3,3.212158335E-3,1.045599231E-3
5.079117504E0,-2.869649325E-5,3.212158335E-3,1.578230876E-3
5.084175160E0,1.569198794E-3,1.081632334E-3,1.578230876E-3
5.089232764E0,1.569198794E-3,1.614264096E-3,1.045599231E-3
5.094290368E0,5.039352691E-4,-5.162634188E-4,1.578230876E-3
5.099348025E0,-2.869649325E-5,1.081632334E-3,1.578230876E-3
5.104409275E0,3.699725959E-3,1.081632334E-3,5.129674682E-4
5.109466931E0,1.569198794E-3,5.490005715E-4,-1.966441050E-5
5.114524587E0,1.036567031E-3,1.081632334E-3,5.129674682E-4
5.119582191E0,2.634462435E-3,-1.581526478E-3,5.129674682E-4
5.124639848E0,5.039352691E-4,-5.162634188E-4,5.129674682E-4
5.129697452E0,-2.869649325E-5,1.081632334E-3,1.045599231E-3
5.134740421E0,2.101830672E-3,1.614264096E-3,1.578230876E-3
5.139798181E0,1.569198794E-3,1.636878005E-5,5.129674682E-4
5.144855993E0,5.297621246E-3,1.636878005E-5,5.129674682E-4
5.149913702E0,3.167094197E-3,1.081632334E-3,1.578230876E-3
5.154971462E0,4.232357722E-3,5.490005715E-4,1.045599231E-3
5.160029223E0,1.569198794E-3,2.146895742E-3,1.578230876E-3
5.165088077E0,5.039352691E-4,-5.162634188E-4,2.643494401E-3
5.170145837E0,-2.869649325E-5,-1.581526478E-3,2.643494401E-3
5.175203650E0,-1.093959552E-3,1.081632334E-3,1.578230876E-3
5.180261358E0,-5.613282556E-4,-5.162634188E-4,1.045599231E-3
5.185319118E0,2.634462435E-3,-1.048894715E-3,1.578230876E-3
5.190376879E0,1.036567031E-3,1.636878005E-5,3.176126163E-3
5.195463493E0,5.039352691E-4,5.490005715E-4,1.045599231E-3
5.200521254E0,1.036567031E-3,3.212158335E-3,1.578230876E-3
5.205579014E0,1.569198794E-3,1.636878005E-5,1.045599231E-3
5.210636775E0,-2.159223426E-3,5.490005715E-4,-1.966441050E-5
5.215694483E0,1.569198794E-3,1.081632334E-3,5.129674682E-4
5.220752296E0,2.101830672E-3,-5.162634188E-4,-1.966441050E-5
5.225781410E0,-2.869649325E-5,-1.048894715E-3,-2.150191227E-3
5.230839171E0,-2.869649325E-5,1.614264096E-3,2.643494401E-3
5.235896931E0,2.101830672E-3,1.081632334E-3,2.643494401E-3
5.240954691E0,-5.613282556E-4,1.636878005E-5,5.129674682E-4
5.246012452E0,5.039352691E-4,-1.581526478E-3,1.045599231E-3
5.251070212E0,1.036567031E-3,1.636878005E-5,2.110862639E-3
5.256143337E0,5.039352691E-4,1.614264096E-3,-5.522961728E-4
5.261201098E0,3.699725959E-3,5.490005715E-4,1.578230876E-3
5.266258858E0,1.569198794E-3,1.081632334E-3,3.708757926E-3
5.271316618E0,5.039352691E-4,1.614264096E-3,2.110862639E-3
5.276374379E0,3.699725959E-3,1.614264096E-3,-1.617559465E-3
5.281432139E0,1.569198794E-3,1.081632334E-3,-1.966441050E-5
5.286500004E0,3.699725959E-3,2.146895742E-3,1.578230876E-3
5.291557764E0,2.634462435E-3,5.490005715E-4,-1.084927935E-3
5.296615525E0,4.232357722E-3,5.490005715E-4,-1.966441050E-5
5.301673285E0,3.699725959E-3,5.490005715E-4,-1.966441050E-5
5.306730993E0,1.569198794E-3,2.146895742E-3,-5.522961728E-4
5.311788754E0,-1.093959552E-3,1.636878005E-5,1.045599231E-3
5.316838702E0,1.569198794E-3,2.679527504E-3,5.129674682E-4
5.321896462E0,1.036567031E-3,1.081632334E-3,5.129674682E-4
5.326954223E0,5.039352691E-4,1.081632334E-3,1.578230876E-3
5.332011983E0,-2.869649325E-5,1.614264096E-3,5.129674682E-4
5.337069743E0,2.634462435E-3,1.636878005E-5,-5.522961728E-4
5.342127504E0,3.699725959E-3,-1.581526478E-3,5.129674682E-4
5.347186046E0,5.039352691E-4,5.490005715E-4,1.045599231E-3
5.352243806E0,-1.093959552E-3,5.490005715E-4,2.110862639E-3
5.357301566E0,-2.869649325E-5,1.081632334E-3,1.045599231E-3
5.362359327E0,1.569198794E-3,2.679527504E-3,1.045599231E-3
5.367417087E0,2.634462435E-3,1.614264096E-3,1.578230876E-3
5.372474900E0,2.101830672E-3,3.212158335E-3,1.045599231E-3
5.377508754E0,1.569198794E-3,1.081632334E-3,5.129674682E-4
5.382566514E0,2.101830672E-3,1.636878005E-5,-1.617559465E-3
5.387624275E0,1.569198794E-3,1.614264096E-3,1.045599231E-3
5.392682035E0,2.101830672E-3,2.146895742E-3,5.129674682E-4
5.397739796E0,2.101830672E-3,5.490005715E-4,1.578230876E-3
5.402797556E0,1.036567031E-3,-5.162634188E-4,2.643494401E-3
5.407862868E0,4.232357722E-3,5.490005715E-4,-5.522961728E-4
5.412920629E0,3.699725959E-3,-1.581526478E-3,5.129674682E-4
5.417978389E0,1.569198794E-3,1.081632334E-3,1.578230876E-3
5.423036150E0,-2.869649325E-5,1.636878005E-5,2.110862639E-3
5.428093910E0,2.101830672E-3,1.081632334E-3,1.045599231E-3
5.433151671E0,1.036567031E-3,1.636878005E-5,1.045599231E-3
5.438210889E0,-1.626591780E-3,2.679527504E-3,5.129674682E-4
5.443268650E0,3.167094197E-3,5.490005715E-4,-5.522961728E-4
5.448326358E0,1.569198794E-3,1.081632334E-3,1.045599231E-3
5.453384171E0,2.101830672E-3,1.614264096E-3,1.578230876E-3
5.458441931E0,-2.869649325E-5,1.081632334E-3,2.110862639E-3
5.463499691E0,5.039352691E-4,-1.048894715E-3,1.045599231E-3
5.468549014E0,-5.613282556E-4,1.636878005E-5,2.110862639E-3
5.473606775E0,-1.093959552E-3,1.636878005E-5,2.110862639E-3
5.478664535E0,1.569198794E-3,-5.162634188E-4,1.045599231E-3
5.483722296E0,3.699725959E-3,5.490005715E-4,2.110862639E-3
5.488780056E0,4.232357722E-3,2.679527504E-3,1.578230876E-3
5.493837816E0,1.036567031E-3,2.146895742E-3,2.110862639E-3
5.498920889E0,1.036567031E-3,1.614264096E-3,-5.522961728E-4
5.503978650E0,-2.869649325E-5,5.490005715E-4,-1.084927935E-3
5.509036410E0,2.101830672E-3,1.081632334E-3,2.110862639E-3
5.514094171E0,-1.093959552E-3,3.212158335E-3,5.129674682E-4
5.519151931E0,-5.613282556E-4,1.614264096E-3,2.643494401E-3
5.524209691E0,1.036567031E-3,1.614264096E-3,3.176126163E-3
5.529265577E0,4.232357722E-3,1.614264096E-3,1.045599231E-3
5.534323337E0,2.101830672E-3,2.146895742E-3,2.110862639E-3
5.539381098E0,-5.613282556E-4,1.614264096E-3,1.045599231E-3
5.544438910E0,5.039352691E-4,1.614264096E-3,-1.966441050E-5
5.549496618E0,3.699725959E-3,5.490005715E-4,5.129674682E-4
5.554554431E0,2.101830672E-3,-1.048894715E-3,2.110862639E-3
5.559661879E0,-2.869649325E-5,1.636878005E-5,1.578230876E-3
5.564719639E0,-5.613282556E-4,5.490005715E-4,-1.084927935E-3
5.569777400E0,5.039352691E-4,5.490005715E-4,5.129674682E-4
5.574835108E0,1.569198794E-3,1.636878005E-5,-1.966441050E-5
5.579892921E0,5.039352691E-4,-5.162634188E-4,5.129674682E-4
5.584950681E0,1.569198794E-3,-5.162634188E-4,5.129674682E-4
5.589958441E0,2.101830672E-3,1.614264096E-3,-1.966441050E-5
5.595016202E0,1.036567031E-3,2.146895742E-3,-1.966441050E-5
5.600073962E0,-2.869649325E-5,2.146895742E-3,1.578230876E-3
5.605131775E0,2.101830672E-3,1.614264096E-3,-5.522961728E-4
5.610189483E0,5.039352691E-4,1.636878005E-5,1.045599231E-3
5.615247243E0,5.039352691E-4,-5.162634188E-4,5.129674682E-4
5.620305889E0,5.039352691E-4,2.146895742E-3,1.045599231E-3
5.625363650E0,5.039352691E-4,-5.162634188E-4,2.110862639E-3
5.630421410E0,2.101830672E-3,1.636878005E-5,5.129674682E-4
5.635479223E0,-2.869649325E-5,1.614264096E-3,3.176126163E-3
5.640536931E0,-2.869649325E-5,1.081632334E-3,2.643494401E-3
5.645594691E0,2.101830672E-3,1.614264096E-3,-1.084927935E-3
5.650639014E0,1.569198794E-3,2.679527504E-3,5.129674682E-4
5.655696775E0,2.101830672E-3,5.490005715E-4,-1.966441050E-5
5.660754535E0,5.039352691E-4,1.614264096E-3,1.045599231E-3
5.665812296E0,2.634462435E-3,2.146895742E-3,1.578230876E-3
5.670870004E0,3.167094197E-3,1.081632334E-3,5.129674682E-4
5.675927816E0,3.167094197E-3,1.636878005E-5,5.129674682E-4
5.680983858E0,2.101830672E-3,1.081632334E-3,1.045599231E-3
5.686041618E0,1.036567031E-3,2.146895742E-3,5.129674682E-4
5.691099379E0,1.036567031E-3,1.614264096E-3,5.129674682E-4
5.696157139E0,5.039352691E-4,1.081632334E-3,1.578230876E-3
5.701214900E0,5.039352691E-4,3.212158335E-3,1.578230876E-3
5.706272660E0,2.101830672E-3,1.081632334E-3,1.045599231E-3
5.711332243E0,1.036567031E-3,1.614264096E-3,2.110862639E-3
5.716390004E0,5.039352691E-4,2.146895742E-3,1.578230876E-3
5.721447764E0,4.232357722E-3,1.614264096E-3,-5.522961728E-4
5.726505525E0,-2.869649325E-5,5.490005715E-4,5.129674682E-4
5.731563285E0,-5.613282556E-4,1.081632334E-3,2.110862639E-3
5.736621046E0,-5.613282556E-4,1.081632334E-3,2.110862639E-3
5.741693337E0,1.036567031E-3,-5.162634188E-4,1.578230876E-3
5.746751098E0,3.167094197E-3,1.636878005E-5,-1.966441050E-5
5.751808858E0,-2.869649325E-5,-5.162634188E-4,-1.084927935E-3
5.756866618E0,1.036567031E-3,3.212158335E-3,-1.966441050E-5
5.761924379E0,1.036567031E-3,2.679527504E-3,5.129674682E-4
5.766982139E0,5.039352691E-4,-5.162634188E-4,-1.084927935E-3
5.772039275E0,1.569198794E-3,-5.162634188E-4,1.578230876E-3
5.777097035E0,3.167094197E-3,1.614264096E-3,1.578230876E-3
5.782154796E0,3.167094197E-3,1.614264096E-3,-1.966441050E-5
5.787212556E0,5.039352691E-4,1.636878005E-5,3.176126163E-3
5.792270316E0,-5.613282556E-4,1.636878005E-5,2.110862639E-3
5.797328077E0,1.036567031E-3,-1.048894715E-3,-1.084927935E-3
5.802388285E0,-5.613282556E-4,5.490005715E-4,1.578230876E-3
5.807446046E0,1.569198794E-3,1.636878005E-5,3.176126163E-3
5.812503806E0,3.167094197E-3,2.679527504E-3,5.129674682E-4
5.817561566E0,5.039352691E-4,1.614264096E-3,1.045599231E-3
5.822619379E0,1.569198794E-3,5.490005715E-4,5.129674682E-4
5.827677087E0,-2.691855188E-3,1.636878005E-5,1.578230876E-3
5.832731514E0,-1.093959552E-3,1.614264096E-3,1.045599231E-3
5.837789275E0,3.699725959E-3,1.614264096E-3,-1.084927935E-3
5.842847035E0,1.569198794E-3,-5.162634188E-4,5.129674682E-4
5.847904796E0,2.634462435E-3,-1.048894715E-3,2.110862639E-3
5.852962556E0,1.036567031E-3,1.081632334E-3,2.643494401E-3
5.858020316E0,-1.093959552E-3,1.081632334E-3,-5.522961728E-4
5.863079848E0,5.039352691E-4,4.810054787E-3,5.129674682E-4
5.868137608E0,3.167094197E-3,2.679527504E-3,5.129674682E-4
5.873195368E0,5.039352691E-4,1.614264096E-3,-2.150191227E-3
5.878253129E0,5.039352691E-4,2.146895742E-3,1.578230876E-3
5.883310889E0,1.036567031E-3,3.212158335E-3,-1.966441050E-5
5.888368650E0,1.036567031E-3,1.081632334E-3,1.045599231E-3
5.893404171E0,-2.159223426E-3,4.810054787E-3,5.129674682E-4
5.898461931E0,5.039352691E-4,1.081632334E-3,-5.522961728E-4
5.903519691E0,1.569198794E-3,1.636878005E-5,1.045599231E-3
5.908577452E0,-1.093959552E-3,-1.048894715E-3,2.110862639E-3
5.913635212E0,-1.093959552E-3,1.614264096E-3,1.578230876E-3
5.918692973E0,1.569198794E-3,2.679527504E-3,-2.682822989E-3
5.923752452E0,-5.613282556E-4,1.614264096E-3,1.578230876E-3
5.928810212E0,2.101830672E-3,1.636878005E-5,-1.966441050E-5
5.933867973E0,3.167094197E-3,1.081632334E-3,-1.966441050E-5
5.938925733E0,1.036567031E-3,2.679527504E-3,-1.966441050E-5
5.943983493E0,5.039352691E-4,2.146895742E-3,-5.522961728E-4
5.949041254E0,2.634462435E-3,1.081632334E-3,-5.522961728E-4
5.954098598E0,3.699725959E-3,5.490005715E-4,1.578230876E-3
5.959156410E0,3.167094197E-3,-1.581526478E-3,2.110862639E-3
5.964214118E0,1.569198794E-3,-5.162634188E-4,-1.966441050E-5
5.969271931E0,-2.159223426E-3,1.081632334E-3,5.129674682E-4
5.974329639E0,1.569198794E-3,2.146895742E-3,-1.966441050E-5
5.979387452E0,2.101830672E-3,2.679527504E-3,-1.084927935E-3
5.984480837E0,5.039352691E-4,5.490005715E-4,1.045599231E-3
5.989538598E0,5.039352691E-4,1.614264096E-3,3.176126163E-3
5.994596358E0,-1.093959552E-3,1.081632334E-3,5.129674682E-4
5.999654118E0,-3.757118713E-3,-1.048894715E-3,2.643494401E-3
6.004711879E0,-5.613282556E-4,5.490005715E-4,2.110862639E-3
6.009769639E0,4.232357722E-3,3.212158335E-3,-5.522961728E-4
6.014878337E0,1.569198794E-3,2.146895742E-3,-1.966441050E-5
6.019936098E0,1.569198794E-3,1.081632334E-3,-5.522961728E-4
6.024993858E0,5.039352691E-4,2.146895742E-3,1.045599231E-3
6.030051618E0,1.036567031E-3,2.679527504E-3,2.110862639E-3
6.035109379E0,5.039352691E-4,2.146895742E-3,1.578230876E-3
6.040167139E0,-1.093959552E-3,5.490005715E-4,1.578230876E-3
6.045184691E0,1.569198794E-3,-1.581526478E-3,5.129674682E-4
6.050242452E0,1.569198794E-3,1.081632334E-3,5.129674682E-4
6.055300212E0,1.036567031E-3,5.490005715E-4,2.643494401E-3
6.060357973E0,-5.613282556E-4,2.146895742E-3,-1.966441050E-5
6.065415733E0,2.101830672E-3,2.146895742E-3,5.129674682E-4
6.070473493E0,1.036567031E-3,5.490005715E-4,2.643494401E-3
6.075524066E0,3.167094197E-3,1.081632334E-3,-1.966441050E-5
6.080581827E0,1.569198794E-3,1.614264096E-3,-5.522961728E-4
6.085639587E0,5.039352691E-4,-1.048894715E-3,1.578230876E-3
6.090697348E0,5.039352691E-4,1.614264096E-3,5.129674682E-4
6.095755108E0,-1.093959552E-3,2.146895742E-3,-1.966441050E-5
6.100812868E0,5.039352691E-4,5.490005715E-4,5.129674682E-4
6.105848546E0,-2.869649325E-5,1.614264096E-3,1.045599231E-3
6.110906254E0,1.036567031E-3,5.490005715E-4,-5.522961728E-4
6.115964014E0,-2.159223426E-3,1.636878005E-5,2.643494401E-3
6.121021775E0,-2.869649325E-5,2.679527504E-3,1.045599231E-3
6.126079535E0,5.039352691E-4,1.081632334E-3,-5.522961728E-4
6.131137296E0,-2.869649325E-5,5.490005715E-4,-1.966441050E-5
6.136179900E0,3.167094197E-3,1.081632334E-3,-1.617559465E-3
6.141237660E0,-1.626591780E-3,1.614264096E-3,1.045599231E-3
6.146295473E0,-2.869649325E-5,3.212158335E-3,1.578230876E-3
6.151353181E0,-2.869649325E-5,1.081632334E-3,1.578230876E-3
6.156410941E0,2.101830672E-3,1.636878005E-5,5.129674682E-4
6.161468754E0,2.634462435E-3,2.146895742E-3,2.110862639E-3
6.166546671E0,1.036567031E-3,1.636878005E-5,1.578230876E-3
6.171604483E0,5.039352691E-4,2.146895742E-3,1.045599231E-3
6.176662243E0,2.101830672E-3,1.614264096E-3,2.110862639E-3
6.181720004E0,1.569198794E-3,5.490005715E-4,2.643494401E-3
6.186777816E0,-2.869649325E-5,2.679527504E-3,2.110862639E-3
6.191835577E0,1.036567031E-3,5.490005715E-4,1.045599231E-3
6.196883077E0,5.039352691E-4,5.490005715E-4,-1.966441050E-5
6.201940837E0,-5.613282556E-4,1.614264096E-3,3.176126163E-3
6.206998598E0,3.699725959E-3,2.679527504E-3,1.045599231E-3
6.212056358E0,2.634462435E-3,1.614264096E-3,-1.617559465E-3
6.217114171E0,5.039352691E-4,5.490005715E-4,2.643494401E-3
6.222171931E0,2.634462435E-3,1.081632334E-3,5.306653213E-3
6.227219535E0,2.101830672E-3,-5.162634188E-4,5.129674682E-4
6.232277296E0,1.036567031E-3,1.081632334E-3,-2.150191227E-3
6.237335056E0,2.101830672E-3,1.081632334E-3,-1.084927935E-3
6.242392816E0,-2.869649325E-5,5.490005715E-4,2.110862639E-3
6.247450629E0,1.036567031E-3,1.081632334E-3,-1.966441050E-5
6.252508389E0,1.569198794E-3,2.679527504E-3,-5.522961728E-4
6.257591671E0,1.569198794E-3,2.146895742E-3,-1.966441050E-5
6.262649483E0,-2.159223426E-3,1.081632334E-3,1.578230876E-3
6.267707243E0,1.569198794E-3,1.636878005E-5,2.110862639E-3
6.272765004E0,2.634462435E-3,1.614264096E-3,1.045599231E-3
6.277822764E0,1.569198794E-3,2.679527504E-3,-1.084927935E-3
6.282880577E0,5.039352691E-4,1.081632334E-3,-1.966441050E-5
6.287935733E0,5.039352691E-4,1.081632334E-3,3.176126163E-3
6.292993546E0,1.569198794E-3,-5.162634188E-4,1.045599231E-3
6.298051306E0,1.569198794E-3,1.614264096E-3,-5.522961728E-4
6.303109066E0,-2.869649325E-5,1.614264096E-3,-1.084927935E-3
6.308166827E0,1.036567031E-3,1.081632334E-3,5.129674682E-4
6.313224639E0,-2.869649325E-5,-5.162634188E-4,5.129674682E-4
6.318281514E0,-2.869649325E-5,1.614264096E-3,1.578230876E-3
6.323339327E0,2.634462435E-3,3.744791029E-3,2.110862639E-3
6.328397087E0,-1.093959552E-3,2.679527504E-3,-1.966441050E-5
6.333454848E0,-2.869649325E-5,5.490005715E-4,-1.617559465E-3
6.338512608E0,2.101830672E-3,1.636878005E-5,2.643494401E-3
6.343570421E0,2.101830672E-3,1.614264096E-3,1.045599231E-3
6.348629900E0,5.039352691E-4,1.614264096E-3,3.176126163E-3
6.353687712E0,-2.869649325E-5,1.081632334E-3,2.110862639E-3
6.358745473E0,2.634462435E-3,1.081632334E-3,1.045599231E-3
6.363803233E0,2.101830672E-3,1.081632334E-3,-1.966441050E-5
6.368860993E0,5.039352691E-4,-1.048894715E-3,2.110862639E-3
6.373918806E0,2.634462435E-3,5.490005715E-4,2.110862639E-3
6.378955316E0,3.167094197E-3,1.636878005E-5,-1.966441050E-5
6.384013077E0,5.039352691E-4,-5.162634188E-4,-1.966441050E-5
6.389070889E0,1.569198794E-3,-5.162634188E-4,1.045599231E-3
6.394128598E0,-2.869649325E-5,-1.581526478E-3,2.643494401E-3
6.399186410E0,5.039352691E-4,-5.162634188E-4,5.129674682E-4
6.404244171E0,5.039352691E-4,1.614264096E-3,5.129674682E-4
6.409307087E0,3.167094197E-3,2.679527504E-3,5.129674682E-4
6.414364848E0,1.036567031E-3,1.614264096E-3,5.129674682E-4
6.419422608E0,-2.869649325E-5,4.277423024E-3,-1.966441050E-5
6.424480421E0,-1.093959552E-3,1.614264096E-3,5.129674682E-4
6.429538181E0,-2.869649325E-5,-1.048894715E-3,1.045599231E-3
6.434595941E0,-1.626591780E-3,-5.162634188E-4,1.045599231E-3
6.439653962E0,5.039352691E-4,1.081632334E-3,1.578230876E-3
6.444711723E0,1.569198794E-3,1.636878005E-5,3.176126163E-3
6.449769483E0,3.699725959E-3,-1.048894715E-3,2.110862639E-3
6.454827243E0,3.167094197E-3,5.490005715E-4,5.129674682E-4
6.459885056E0,4.232357722E-3,2.679527504E-3,5.129674682E-4
6.464942816E0,1.036567031E-3,1.614264096E-3,1.045599231E-3
6.470003702E0,1.036567031E-3,1.636878005E-5,3.708757926E-3
6.475061462E0,3.167094197E-3,5.490005715E-4,2.110862639E-3
6.480119223E0,2.101830672E-3,1.081632334E-3,1.045599231E-3
6.485177035E0,-2.869649325E-5,1.081632334E-3,5.129674682E-4
6.490234796E0,-1.093959552E-3,5.490005715E-4,5.129674682E-4
6.495292556E0,-2.869649325E-5,1.081632334E-3,1.578230876E-3
6.500367243E0,5.039352691E-4,1.081632334E-3,1.045599231E-3
6.505425056E0,-2.869649325E-5,3.744791029E-3,-1.966441050E-5
6.510482816E0,1.569198794E-3,2.679527504E-3,5.129674682E-4
6.515540577E0,1.036567031E-3,3.744791029E-3,-1.966441050E-5
6.520598337E0,-2.869649325E-5,1.081632334E-3,2.643494401E-3
6.525656098E0,2.634462435E-3,5.490005715E-4,1.045599231E-3
6.530709275E0,1.569198794E-3,5.490005715E-4,-5.522961728E-4
6.535767087E0,2.634462435E-3,1.081632334E-3,5.129674682E-4
6.540824848E0,3.167094197E-3,5.490005715E-4,1.045599231E-3
6.545882608E0,2.101830672E-3,5.490005715E-4,2.643494401E-3
6.550940368E0,1.036567031E-3,1.614264096E-3,2.643494401E-3
6.555998181E0,-2.869649325E-5,-1.048894715E-3,5.129674682E-4
6.561057556E0,1.036567031E-3,5.490005715E-4,1.578230876E-3
6.566115368E0,1.036567031E-3,4.810054787E-3,1.578230876E-3
6.571173129E0,-2.869649325E-5,2.146895742E-3,5.129674682E-4
6.576230889E0,2.101830672E-3,1.081632334E-3,1.578230876E-3
6.581288650E0,1.569198794E-3,5.490005715E-4,3.176126163E-3
6.586346462E0,1.036567031E-3,1.081632334E-3,1.578230876E-3
6.591402973E0,-2.869649325E-5,1.614264096E-3,1.045599231E-3
6.596460785E0,1.036567031E-3,5.490005715E-4,2.643494401E-3
6.601518546E0,2.101830672E-3,1.636878005E-5,1.578230876E-3
6.606576306E0,1.569198794E-3,1.614264096E-3,5.129674682E-4
6.611634066E0,-5.613282556E-4,1.614264096E-3,-1.084927935E-3
6.616691879E0,2.101830672E-3,2.679527504E-3,-5.522961728E-4
6.621766462E0,2.101830672E-3,5.490005715E-4,5.129674682E-4
6.626824118E0,2.634462435E-3,1.636878005E-5,3.176126163E-3
6.631881931E0,-1.626591780E-3,3.212158335E-3,3.176126163E-3
6.636939691E0,1.569198794E-3,3.212158335E-3,-1.966441050E-5
6.641997452E0,3.699725959E-3,1.081632334E-3,5.129674682E-4
6.647055212E0,3.167094197E-3,1.081632334E-3,-1.084927935E-3
6.652112973E0,2.101830672E-3,1.614264096E-3,-1.966441050E-5
6.657158650E0,2.101830672E-3,-5.162634188E-4,-1.966441050E-5
6.662216462E0,1.036567031E-3,-5.162634188E-4,-2.150191227E-3
6.667274223E0,5.039352691E-4,1.636878005E-5,1.045599231E-3
6.672331983E0,5.039352691E-4,-1.581526478E-3,2.110862639E-3
6.677389743E0,1.569198794E-3,1.636878005E-5,-1.966441050E-5
6.682447556E0,2.101830672E-3,-1.581526478E-3,-1.617559465E-3
6.687558077E0,2.101830672E-3,-1.048894715E-3,5.129674682E-4
6.692615837E0,1.569198794E-3,4.277423024E-3,2.110862639E-3
6.697673650E0,4.232357722E-3,2.679527504E-3,3.176126163E-3
6.702731410E0,2.634462435E-3,5.490005715E-4,5.129674682E-4
6.707789171E0,2.101830672E-3,1.081632334E-3,5.129674682E-4
6.712846931E0,3.167094197E-3,1.636878005E-5,-1.966441050E-5
6.717856827E0,3.167094197E-3,1.081632334E-3,1.578230876E-3
6.722914587E0,3.699725959E-3,1.081632334E-3,1.045599231E-3
6.727972400E0,1.036567031E-3,2.146895742E-3,5.129674682E-4
6.733030160E0,5.039352691E-4,1.614264096E-3,1.578230876E-3
6.738087921E0,1.036567031E-3,5.490005715E-4,5.129674682E-4
6.743145681E0,1.036567031E-3,1.081632334E-3,-1.966441050E-5
6.748209587E0,-1.626591780E-3,5.490005715E-4,5.129674682E-4
6.753267348E0,1.569198794E-3,1.636878005E-5,3.176126163E-3
6.758325160E0,2.101830672E-3,1.636878005E-5,1.578230876E-3
6.763382921E0,-5.613282556E-4,5.490005715E-4,5.129674682E-4
6.768440681E0,5.039352691E-4,5.490005715E-4,5.129674682E-4
6.773498441E0,2.634462435E-3,5.490005715E-4,1.045599231E-3
6.778560681E0,5.039352691E-4,-5.162634188E-4,2.110862639E-3
6.783618493E0,1.569198794E-3,2.146895742E-3,2.110862639E-3
6.788676254E0,3.699725959E-3,1.081632334E-3,5.129674682E-4
6.793734014E0,5.039352691E-4,1.081632334E-3,5.129674682E-4
6.798791775E0,-2.869649325E-5,1.081632334E-3,-5.522961728E-4
6.803849587E0,-2.159223426E-3,-2.114158357E-3,1.578230876E-3
6.808888598E0,2.101830672E-3,1.614264096E-3,-5.522961728E-4
6.813946358E0,3.699725959E-3,1.636878005E-5,-5.522961728E-4
6.819004171E0,1.569198794E-3,-5.162634188E-4,3.708757926E-3
6.824061931E0,-2.869649325E-5,2.146895742E-3,5.129674682E-4
6.829119691E0,5.039352691E-4,5.490005715E-4,1.578230876E-3
6.834177452E0,-5.613282556E-4,5.490005715E-4,1.045599231E-3
6.839233858E0,1.036567031E-3,1.081632334E-3,1.578230876E-3
6.844291618E0,1.036567031E-3,2.146895742E-3,1.045599231E-3
6.849349431E0,5.039352691E-4,5.490005715E-4,2.110862639E-3
6.854407139E0,-5.613282556E-4,1.081632334E-3,2.110862639E-3
6.859464952E0,1.036567031E-3,-5.162634188E-4,1.045599231E-3
6.864522764E0,1.569198794E-3,5.490005715E-4,-1.966441050E-5
6.869579327E0,1.036567031E-3,-5.162634188E-4,-1.966441050E-5
6.874637087E0,-1.093959552E-3,1.636878005E-5,1.578230876E-3
6.879694900E0,1.036567031E-3,1.614264096E-3,-1.084927935E-3
6.884752660E0,-2.869649325E-5,1.614264096E-3,5.129674682E-4
6.889810421E0,3.167094197E-3,2.146895742E-3,1.578230876E-3
6.894868233E0,2.634462435E-3,1.081632334E-3,-1.966441050E-5
6.899926462E0,3.699725959E-3,5.490005715E-4,5.129674682E-4
6.904984223E0,3.699725959E-3,1.636878005E-5,1.045599231E-3
6.910042035E0,5.039352691E-4,1.614264096E-3,5.129674682E-4
6.915099796E0,1.036567031E-3,3.212158335E-3,5.129674682E-4
6.920157556E0,2.101830672E-3,2.679527504E-3,-1.966441050E-5
6.925215316E0,3.699725959E-3,5.490005715E-4,1.578230876E-3
6.930285525E0,5.039352691E-4,5.490005715E-4,-1.966441050E-5
6.935343285E0,2.634462435E-3,1.636878005E-5,1.045599231E-3
6.940401098E0,3.699725959E-3,1.081632334E-3,2.643494401E-3
6.945458858E0,2.634462435E-3,2.679527504E-3,2.643494401E-3
6.950516618E0,5.039352691E-4,-1.048894715E-3,2.110862639E-3
6.955574379E0,3.167094197E-3,1.081632334E-3,1.578230876E-3
6.960635264E0,1.036567031E-3,5.490005715E-4,2.110862639E-3
6.965693025E0,1.036567031E-3,1.081632334E-3,1.578230876E-3
6.970750837E0,2.101830672E-3,2.679527504E-3,-5.522961728E-4
6.975808598E0,5.039352691E-4,1.081632334E-3,-5.522961728E-4
6.980866358E0,-2.869649325E-5,2.146895742E-3,-1.966441050E-5
6.985924118E0,1.036567031E-3,1.636878005E-5,5.129674682E-4
6.990950316E0,2.101830672E-3,5.490005715E-4,1.045599231E-3
6.996008129E0,2.634462435E-3,2.679527504E-3,1.045599231E-3
7.001065889E0,-2.869649325E-5,1.636878005E-5,2.643494401E-3
7.006123650E0,2.101830672E-3,-1.048894715E-3,5.129674682E-4
7.011181410E0,-2.869649325E-5,1.614264096E-3,5.129674682E-4
7.016239223E0,2.101830672E-3,1.614264096E-3,-1.966441050E-5
7.021313546E0,1.569198794E-3,1.636878005E-5,-1.966441050E-5
7.026371306E0,-5.613282556E-4,1.614264096E-3,-5.522961728E-4
7.031429118E0,1.569198794E-3,1.614264096E-3,1.578230876E-3
7.036486879E0,2.634462435E-3,2.679527504E-3,1.045599231E-3
7.041544639E0,5.039352691E-4,1.636878005E-5,-5.522961728E-4
7.046602400E0,-2.869649325E-5,1.614264096E-3,1.578230876E-3
7.051660785E0,-1.626591780E-3,1.614264096E-3,1.045599231E-3
7.056718598E0,-5.613282556E-4,2.146895742E-3,5.129674682E-4
7.061776358E0,1.569198794E-3,1.081632334E-3,2.643494401E-3
7.066834118E0,-1.093959552E-3,1.636878005E-5,5.129674682E-4
7.071891879E0,1.036567031E-3,1.614264096E-3,-5.522961728E-4
7.076949639E0,1.569198794E-3,1.614264096E-3,5.129674682E-4
7.082010421E0,2.101830672E-3,1.081632334E-3,5.129674682E-4
7.087068181E0,1.569198794E-3,5.490005715E-4,1.045599231E-3
7.092125993E0,-1.093959552E-3,1.636878005E-5,1.045599231E-3
7.097183754E0,5.039352691E-4,1.081632334E-3,5.129674682E-4
7.102241514E0,3.167094197E-3,2.146895742E-3,2.110862639E-3
7.107299275E0,3.167094197E-3,1.081632334E-3,1.045599231E-3
7.112352608E0,5.039352691E-4,-5.162634188E-4,1.045599231E-3
7.117410368E0,-1.093959552E-3,1.614264096E-3,1.045599231E-3
7.122468129E0,1.569198794E-3,3.212158335E-3,-5.522961728E-4
7.127525941E0,1.036567031E-3,1.614264096E-3,5.129674682E-4
7.132583702E0,4.232357722E-3,-1.048894715E-3,-1.966441050E-5
7.137641462E0,2.101830672E-3,-5.162634188E-4,-5.522961728E-4
7.142688337E0,5.039352691E-4,-1.048894715E-3,1.578230876E-3
7.147746150E0,2.101830672E-3,1.636878005E-5,5.129674682E-4
7.152803962E0,1.036567031E-3,4.277423024E-3,2.643494401E-3
7.157861775E0,2.101830672E-3,2.679527504E-3,1.045599231E-3
7.162919587E0,3.167094197E-3,1.636878005E-5,3.176126163E-3
7.167977452E0,4.232357722E-3,1.081632334E-3,-1.617559465E-3
7.173025108E0,5.039352691E-4,3.744791029E-3,1.045599231E-3
7.178082921E0,-2.869649325E-5,1.614264096E-3,1.578230876E-3
7.183140733E0,1.569198794E-3,5.490005715E-4,-1.966441050E-5
7.188198546E0,-5.613282556E-4,2.146895742E-3,1.045599231E-3
7.193256358E0,1.036567031E-3,1.081632334E-3,2.643494401E-3
7.198314223E0,5.039352691E-4,1.081632334E-3,2.110862639E-3
7.203389379E0,5.039352691E-4,1.614264096E-3,-5.522961728E-4
7.208447191E0,2.634462435E-3,1.636878005E-5,1.045599231E-3
7.213505004E0,2.634462435E-3,1.614264096E-3,1.578230876E-3
7.218562764E0,2.634462435E-3,3.212158335E-3,-1.966441050E-5
7.223620629E0,2.101830672E-3,1.636878005E-5,1.045599231E-3
7.228678441E0,5.039352691E-4,-5.162634188E-4,1.045599231E-3
7.233743858E0,-2.691855188E-3,2.146895742E-3,-1.084927935E-3
7.238801671E0,-5.613282556E-4,1.614264096E-3,1.045599231E-3
7.243859483E0,2.634462435E-3,1.636878005E-5,2.110862639E-3
7.248917296E0,-2.869649325E-5,-5.162634188E-4,1.578230876E-3
7.253975108E0,2.634462435E-3,1.614264096E-3,2.643494401E-3
7.259032921E0,3.167094197E-3,1.081632334E-3,1.578230876E-3
7.264087973E0,1.569198794E-3,5.490005715E-4,-1.084927935E-3
7.269145733E0,1.569198794E-3,1.636878005E-5,1.578230876E-3
7.274203598E0,3.699725959E-3,1.636878005E-5,2.643494401E-3
7.279261410E0,3.167094197E-3,-5.162634188E-4,-1.084927935E-3
7.284319223E0,1.569198794E-3,1.081632334E-3,5.129674682E-4
7.289377035E0,1.569198794E-3,1.614264096E-3,1.578230876E-3
7.294435733E0,1.569198794E-3,2.146895742E-3,3.176126163E-3
7.299493598E0,2.634462435E-3,2.679527504E-3,2.643494401E-3
7.304551358E0,1.569198794E-3,3.744791029E-3,5.129674682E-4
7.309609223E0,5.039352691E-4,2.679527504E-3,5.129674682E-4
7.314667035E0,-2.869649325E-5,1.081632334E-3,-5.522961728E-4
7.319724848E0,-2.159223426E-3,1.081632334E-3,1.578230876E-3
7.324782139E0,1.569198794E-3,1.614264096E-3,5.129674682E-4
7.329840004E0,3.699725959E-3,1.614264096E-3,-1.966441050E-5
7.334897764E0,5.039352691E-4,5.490005715E-4,1.578230876E-3
7.339955629E0,2.101830672E-3,2.679527504E-3,1.045599231E-3
7.345013441E0,1.569198794E-3,-5.162634188E-4,5.129674682E-4
7.350071254E0,1.569198794E-3,1.636878005E-5,-1.966441050E-5
7.355128598E0,1.036567031E-3,4.277423024E-3,-1.966441050E-5
7.360186410E0,-1.626591780E-3,5.490005715E-4,1.045599231E-3
7.365244223E0,5.039352691E-4,-2.114158357E-3,2.110862639E-3
7.370302035E0,3.699725959E-3,5.490005715E-4,-1.966441050E-5
7.375359848E0,1.569198794E-3,1.614264096E-3,-5.522961728E-4
7.380417660E0,-2.869649325E-5,1.614264096E-3,-1.966441050E-5
7.385453181E0,-5.613282556E-4,1.636878005E-5,-1.966441050E-5
7.390510993E0,2.101830672E-3,3.744791029E-3,2.110862639E-3
7.395568806E0,1.036567031E-3,1.614264096E-3,1.045599231E-3
7.400626618E0,-2.869649325E-5,-1.581526478E-3,1.578230876E-3
7.405684431E0,3.167094197E-3,5.490005715E-4,1.578230876E-3
7.410742296E0,2.634462435E-3,1.081632334E-3,3.176126163E-3
7.415808181E0,5.039352691E-4,1.614264096E-3,5.129674682E-4
7.420865993E0,5.039352691E-4,3.744791029E-3,-1.617559465E-3
7.425923806E0,1.569198794E-3,2.146895742E-3,-5.522961728E-4
7.430981618E0,2.634462435E-3,1.614264096E-3,2.643494401E-3
7.436039431E0,4.764989484E-3,5.490005715E-4,1.578230876E-3
7.441097296E0,2.101830672E-3,5.490005715E-4,5.129674682E-4
7.446148441E0,2.634462435E-3,2.146895742E-3,1.578230876E-3
7.451206254E0,5.039352691E-4,1.636878005E-5,5.129674682E-4
7.456264066E0,-1.626591780E-3,1.081632334E-3,1.578230876E-3
7.461321879E0,5.039352691E-4,2.146895742E-3,2.110862639E-3
7.466379691E0,-2.869649325E-5,1.636878005E-5,-1.084927935E-3
7.471437556E0,-2.159223426E-3,1.081632334E-3,2.643494401E-3
7.476493441E0,1.036567031E-3,1.614264096E-3,3.176126163E-3
7.481551254E0,1.036567031E-3,-1.048894715E-3,2.110862639E-3
7.486609066E0,-2.869649325E-5,1.081632334E-3,-5.522961728E-4
7.491666879E0,-2.869649325E-5,-5.162634188E-4,1.578230876E-3
7.496724691E0,-2.869649325E-5,-1.581526478E-3,1.578230876E-3
7.501782556E0,3.167094197E-3,1.081632334E-3,-1.966441050E-5
7.506882556E0,3.167094197E-3,3.744791029E-3,-1.084927935E-3
7.511940368E0,-1.093959552E-3,1.081632334E-3,2.110862639E-3
7.516998181E0,5.039352691E-4,-5.162634188E-4,1.578230876E-3
7.522055993E0,2.101830672E-3,1.636878005E-5,-1.966441050E-5
7.527113806E0,1.569198794E-3,1.636878005E-5,-5.522961728E-4
7.532171618E0,5.039352691E-4,5.490005715E-4,2.110862639E-3
7.537222973E0,5.039352691E-4,5.490005715E-4,2.110862639E-3
7.542280785E0,-2.869649325E-5,-5.162634188E-4,2.643494401E-3
7.547338598E0,1.036567031E-3,5.490005715E-4,1.578230876E-3
7.552396410E0,2.634462435E-3,5.490005715E-4,-1.084927935E-3
7.557454223E0,2.101830672E-3,5.490005715E-4,2.110862639E-3
7.562512087E0,5.039352691E-4,1.614264096E-3,5.129674682E-4
7.567579691E0,2.101830672E-3,1.081632334E-3,-1.966441050E-5
7.572637504E0,3.699725959E-3,5.490005715E-4,5.129674682E-4
7.577695316E0,1.036567031E-3,1.636878005E-5,-5.522961728E-4
7.582753129E0,2.634462435E-3,3.744791029E-3,-1.966441050E-5
7.587810941E0,2.101830672E-3,2.679527504E-3,2.110862639E-3
7.592868754E0,2.634462435E-3,2.679527504E-3,5.129674682E-4
7.597911462E0,1.569198794E-3,2.146895742E-3,3.176126163E-3
7.602969275E0,1.569198794E-3,1.614264096E-3,2.110862639E-3
7.608027035E0,1.569198794E-3,1.081632334E-3,1.045599231E-3
7.613084900E0,1.036567031E-3,1.614264096E-3,-1.966441050E-5
7.618142712E0,2.634462435E-3,1.081632334E-3,1.045599231E-3
7.623200525E0,1.569198794E-3,1.636878005E-5,-1.617559465E-3
7.628245056E0,5.039352691E-4,5.490005715E-4,1.045599231E-3
7.633302868E0,3.699725959E-3,1.081632334E-3,2.110862639E-3
7.638360681E0,3.167094197E-3,1.081632334E-3,1.045599231E-3
7.643418493E0,2.101830672E-3,5.490005715E-4,-1.966441050E-5
7.648476306E0,1.569198794E-3,5.490005715E-4,2.110862639E-3
7.653534118E0,-2.869649325E-5,-5.162634188E-4,1.578230876E-3
7.658616566E0,1.569198794E-3,1.636878005E-5,2.110862639E-3
7.663674379E0,-2.869649325E-5,5.490005715E-4,5.129674682E-4
7.668732191E0,-5.613282556E-4,-1.048894715E-3,5.129674682E-4
7.673790004E0,3.167094197E-3,-1.048894715E-3,1.578230876E-3
7.678847816E0,1.036567031E-3,1.081632334E-3,-5.522961728E-4
7.683905629E0,1.036567031E-3,1.636878005E-5,1.045599231E-3
7.688944379E0,3.167094197E-3,1.614264096E-3,2.643494401E-3
7.694002139E0,3.167094197E-3,5.490005715E-4,3.176126163E-3
7.699060004E0,1.036567031E-3,1.636878005E-5,1.045599231E-3
7.704117816E0,3.167094197E-3,2.146895742E-3,1.578230876E-3
7.709175629E0,2.634462435E-3,2.146895742E-3,1.578230876E-3
7.714233441E0,-1.626591780E-3,1.636878005E-5,1.045599231E-3
7.719329171E0,1.036567031E-3,1.081632334E-3,2.110862639E-3
7.724386931E0,2.634462435E-3,1.614264096E-3,2.643494401E-3
7.729444796E0,1.569198794E-3,1.614264096E-3,2.110862639E-3
7.734502608E0,5.039352691E-4,1.614264096E-3,1.578230876E-3
7.739560421E0,5.039352691E-4,1.081632334E-3,2.110862639E-3
7.744618233E0,1.036567031E-3,1.081632334E-3,5.129674682E-4
7.749637868E0,2.634462435E-3,1.614264096E-3,1.578230876E-3
7.754695629E0,3.699725959E-3,1.614264096E-3,1.045599231E-3
7.759753493E0,2.101830672E-3,1.636878005E-5,-1.966441050E-5
7.764811306E0,1.569198794E-3,1.614264096E-3,1.045599231E-3
7.769869118E0,-2.869649325E-5,1.614264096E-3,1.045599231E-3
7.774926931E0,1.569198794E-3,2.146895742E-3,1.578230876E-3
7.779985577E0,3.167094197E-3,1.636878005E-5,1.045599231E-3
7.785043337E0,2.101830672E-3,1.636878005E-5,5.129674682E-4
7.790101202E0,1.036567031E-3,5.490005715E-4,2.110862639E-3
7.795159014E0,3.167094197E-3,2.679527504E-3,2.643494401E-3
7.800216827E0,2.101830672E-3,2.679527504E-3,-1.966441050E-5
7.805274639E0,5.039352691E-4,5.490005715E-4,2.110862639E-3
7.810332660E0,-1.093959552E-3,1.614264096E-3,2.643494401E-3
7.815390473E0,2.634462435E-3,1.636878005E-5,1.045599231E-3
7.820448285E0,2.101830672E-3,5.490005715E-4,1.045599231E-3
7.825506098E0,5.039352691E-4,1.614264096E-3,1.578230876E-3
7.830563910E0,3.167094197E-3,5.490005715E-4,2.643494401E-3
7.835621723E0,2.634462435E-3,-1.048894715E-3,-5.522961728E-4
7.840677660E0,-2.869649325E-5,5.490005715E-4,-5.522961728E-4
7.845735473E0,3.699725959E-3,1.636878005E-5,2.110862639E-3
7.850793285E0,2.101830672E-3,-5.162634188E-4,-1.966441050E-5
7.855851098E0,-5.613282556E-4,1.081632334E-3,5.129674682E-4
7.860908910E0,1.036567031E-3,1.081632334E-3,5.129674682E-4
7.865966723E0,2.101830672E-3,-5.162634188E-4,5.129674682E-4
7.871025368E0,-2.869649325E-5,1.081632334E-3,-1.966441050E-5
7.876083129E0,1.569198794E-3,1.636878005E-5,1.045599231E-3
7.881140941E0,1.569198794E-3,1.636878005E-5,5.129674682E-4
7.886198806E0,2.634462435E-3,5.490005715E-4,-5.522961728E-4
7.891256618E0,1.569198794E-3,2.679527504E-3,-1.966441050E-5
7.896314431E0,1.036567031E-3,5.490005715E-4,1.045599231E-3
7.901372556E0,1.569198794E-3,1.636878005E-5,2.110862639E-3
7.906430368E0,1.036567031E-3,1.081632334E-3,2.110862639E-3
7.911488181E0,5.039352691E-4,5.490005715E-4,5.129674682E-4
7.916545993E0,2.634462435E-3,3.212158335E-3,1.045599231E-3
7.921603806E0,3.167094197E-3,1.081632334E-3,-5.522961728E-4
7.926661618E0,5.039352691E-4,5.490005715E-4,1.045599231E-3
7.931701983E0,1.036567031E-3,2.679527504E-3,2.110862639E-3
7.936759796E0,2.101830672E-3,2.146895742E-3,1.578230876E-3
7.941817608E0,-2.869649325E-5,5.490005715E-4,-1.966441050E-5
7.946875421E0,-2.869649325E-5,1.636878005E-5,5.129674682E-4
7.951933233E0,3.167094197E-3,1.081632334E-3,1.578230876E-3
7.956991098E0,3.167094197E-3,-5.162634188E-4,2.110862639E-3
7.962052921E0,-2.869649325E-5,1.614264096E-3,2.110862639E-3
7.967110733E0,-1.093959552E-3,1.614264096E-3,1.578230876E-3
7.972168546E0,2.101830672E-3,5.490005715E-4,1.045599231E-3
7.977226358E0,-2.869649325E-5,2.146895742E-3,2.110862639E-3
7.982284171E0,-2.869649325E-5,2.146895742E-3,1.578230876E-3
7.987342035E0,3.167094197E-3,1.614264096E-3,1.045599231E-3
7.992411410E0,3.167094197E-3,-1.581526478E-3,2.643494401E-3
7.997469223E0,3.167094197E-3,1.636878005E-5,-5.522961728E-4
8.002527035E0,2.101830672E-3,1.614264096E-3,2.643494401E-3
8.007584848E0,2.634462435E-3,2.146895742E-3,2.643494401E-3
8.012642660E0,1.569198794E-3,1.081632334E-3,5.129674682E-4
8.017700473E0,2.101830672E-3,-1.048894715E-3,-1.966441050E-5
8.022758441E0,2.101830672E-3,1.081632334E-3,-5.522961728E-4
8.027816254E0,2.634462435E-3,1.614264096E-3,1.045599231E-3
8.032874066E0,3.699725959E-3,5.490005715E-4,3.176126163E-3
8.037931879E0,-2.869649325E-5,1.636878005E-5,-1.966441050E-5
8.042989691E0,5.039352691E-4,2.146895742E-3,-5.522961728E-4
8.048047504E0,2.634462435E-3,5.490005715E-4,-5.522961728E-4
8.053088181E0,2.101830672E-3,1.636878005E-5,5.129674682E-4
8.058145993E0,-1.093959552E-3,1.081632334E-3,1.045599231E-3
8.063203806E0,2.101830672E-3,1.614264096E-3,-5.522961728E-4
8.068261618E0,5.039352691E-4,1.614264096E-3,-1.966441050E-5
8.073319431E0,3.699725959E-3,1.636878005E-5,-1.617559465E-3
8.078377243E0,5.039352691E-4,-2.114158357E-3,-5.522961728E-4
8.083451306E0,2.101830672E-3,5.490005715E-4,1.578230876E-3
8.088509118E0,1.036567031E-3,1.081632334E-3,2.110862639E-3
8.093566931E0,1.036567031E-3,-5.162634188E-4,5.129674682E-4
8.098624743E0,1.569198794E-3,-5.162634188E-4,5.129674682E-4
8.103682556E0,1.036567031E-3,5.490005715E-4,1.045599231E-3
8.108740368E0,3.699725959E-3,1.614264096E-3,1.578230876E-3
8.113798493E0,5.830253009E-3,1.081632334E-3,-1.966441050E-5
8.118856306E0,4.232357722E-3,5.490005715E-4,-1.084927935E-3
8.123914118E0,2.101830672E-3,1.636878005E-5,1.578230876E-3
8.128971931E0,-2.869649325E-5,5.490005715E-4,5.129674682E-4
8.134029743E0,-2.869649325E-5,1.636878005E-5,-5.522961728E-4
8.139087556E0,5.039352691E-4,2.679527504E-3,-1.084927935E-3
8.144129952E0,5.039352691E-4,1.636878005E-5,1.045599231E-3
8.149187764E0,-1.626591780E-3,-1.048894715E-3,1.045599231E-3
8.154245577E0,1.569198794E-3,5.490005715E-4,1.045599231E-3
8.159303389E0,1.569198794E-3,5.490005715E-4,2.110862639E-3
8.164361150E0,3.167094197E-3,-5.162634188E-4,2.643494401E-3
8.169418962E0,3.699725959E-3,-1.581526478E-3,5.129674682E-4
8.174470056E0,-1.093959552E-3,-5.162634188E-4,3.176126163E-3
8.179527868E0,1.036567031E-3,5.490005715E-4,2.110862639E-3
8.184585629E0,1.569198794E-3,2.146895742E-3,-1.966441050E-5
8.189643493E0,4.232357722E-3,5.490005715E-4,-5.522961728E-4
8.194701202E0,2.101830672E-3,1.614264096E-3,-1.966441050E-5
8.199759066E0,-1.093959552E-3,2.146895742E-3,2.110862639E-3
8.204839275E0,1.569198794E-3,5.490005715E-4,1.045599231E-3
8.209897087E0,-2.869649325E-5,5.490005715E-4,1.578230876E-3
8.214954848E0,1.036567031E-3,-5.162634188E-4,-1.966441050E-5
8.220012660E0,3.167094197E-3,1.636878005E-5,-1.966441050E-5
8.225070421E0,1.036567031E-3,1.636878005E-5,2.643494401E-3
8.230128233E0,5.039352691E-4,5.490005715E-4,5.129674682E-4
8.235171879E0,1.036567031E-3,1.636878005E-5,5.129674682E-4
8.240229691E0,2.101830672E-3,1.081632334E-3,3.708757926E-3
8.245287504E0,-5.613282556E-4,1.636878005E-5,2.110862639E-3
8.250345316E0,-5.613282556E-4,1.081632334E-3,-2.150191227E-3
8.255403077E0,2.634462435E-3,5.490005715E-4,1.578230876E-3
8.260460889E0,2.101830672E-3,1.636878005E-5,1.045599231E-3
8.265532452E0,1.036567031E-3,1.636878005E-5,1.578230876E-3
8.270590212E0,1.569198794E-3,1.614264096E-3,5.129674682E-4
8.275648025E0,-2.869649325E-5,1.081632334E-3,-5.522961728E-4
8.280705837E0,5.039352691E-4,1.081632334E-3,1.578230876E-3
8.285763650E0,2.634462435E-3,1.614264096E-3,1.045599231E-3
8.290821410E0,1.036567031E-3,2.146895742E-3,1.045599231E-3
8.295879431E0,-1.093959552E-3,1.614264096E-3,3.176126163E-3
8.300937243E0,-1.093959552E-3,1.614264096E-3,1.578230876E-3
8.305995056E0,-2.869649325E-5,5.490005715E-4,2.110862639E-3
8.311052816E0,5.039352691E-4,1.614264096E-3,5.129674682E-4
8.316110629E0,2.101830672E-3,1.614264096E-3,2.643494401E-3
8.321168389E0,3.699725959E-3,5.490005715E-4,1.045599231E-3
8.326219431E0,2.634462435E-3,-2.114158357E-3,1.045599231E-3
8.331277243E0,2.634462435E-3,-5.162634188E-4,1.578230876E-3
8.336335056E0,-2.869649325E-5,1.614264096E-3,1.045599231E-3
8.341392816E0,2.101830672E-3,1.636878005E-5,1.045599231E-3
8.346450629E0,-2.869649325E-5,2.146895742E-3,3.708757926E-3
8.351508389E0,1.569198794E-3,2.146895742E-3,1.045599231E-3
8.356573077E0,1.036567031E-3,-5.162634188E-4,1.045599231E-3
8.361630889E0,1.569198794E-3,-5.162634188E-4,2.643494401E-3
8.366688702E0,3.167094197E-3,1.636878005E-5,1.578230876E-3
8.371746462E0,1.036567031E-3,1.614264096E-3,-5.522961728E-4
8.376804275E0,1.036567031E-3,1.636878005E-5,1.578230876E-3
8.381862035E0,1.036567031E-3,1.081632334E-3,1.045599231E-3
8.386932764E0,2.101830672E-3,3.212158335E-3,2.110862639E-3
8.391990525E0,-1.626591780E-3,5.490005715E-4,1.045599231E-3
8.397048337E0,5.039352691E-4,5.490005715E-4,-5.522961728E-4
8.402106150E0,2.101830672E-3,1.614264096E-3,-1.966441050E-5
8.407163910E0,2.101830672E-3,1.614264096E-3,5.129674682E-4
8.412221723E0,-1.626591780E-3,-1.048894715E-3,1.045599231E-3
8.417255212E0,-2.159223426E-3,1.614264096E-3,5.129674682E-4
8.422313025E0,5.039352691E-4,2.146895742E-3,5.129674682E-4
8.427370785E0,5.039352691E-4,1.614264096E-3,-1.966441050E-5
8.432428598E0,5.039352691E-4,5.490005715E-4,1.045599231E-3
8.437486358E0,1.036567031E-3,2.146895742E-3,-1.966441050E-5
8.442544171E0,1.569198794E-3,1.636878005E-5,2.110862639E-3
8.447637660E0,-2.869649325E-5,1.636878005E-5,1.578230876E-3
8.452695421E0,5.039352691E-4,1.081632334E-3,-1.966441050E-5
8.457753233E0,2.101830672E-3,2.146895742E-3,2.110862639E-3
8.462811046E0,1.569198794E-3,1.636878005E-5,3.708757926E-3
8.467868806E0,5.039352691E-4,1.081632334E-3,-1.966441050E-5
8.472926618E0,-2.869649325E-5,-1.581526478E-3,1.045599231E-3
8.477946254E0,5.039352691E-4,1.081632334E-3,5.129674682E-4
8.483004066E0,3.167094197E-3,-5.162634188E-4,2.110862639E-3
8.488061879E0,-2.869649325E-5,-5.162634188E-4,2.643494401E-3
8.493119639E0,1.036567031E-3,1.081632334E-3,1.578230876E-3
8.498177452E0,-2.869649325E-5,1.614264096E-3,1.578230876E-3
8.503235212E0,1.569198794E-3,1.636878005E-5,1.045599231E-3
8.508315108E0,3.167094197E-3,1.081632334E-3,5.129674682E-4
8.513372921E0,1.036567031E-3,1.614264096E-3,2.110862639E-3
8.518430733E0,1.569198794E-3,2.146895742E-3,2.110862639E-3
8.523488493E0,1.036567031E-3,5.490005715E-4,1.045599231E-3
8.528546306E0,5.039352691E-4,2.679527504E-3,-1.617559465E-3
8.533604066E0,-2.691855188E-3,1.081632334E-3,-1.966441050E-5
8.538642712E0,1.569198794E-3,-1.581526478E-3,1.045599231E-3
8.543700525E0,1.036567031E-3,1.614264096E-3,-1.966441050E-5
8.548758337E0,1.569198794E-3,2.679527504E-3,5.129674682E-4
8.553816098E0,-2.869649325E-5,1.636878005E-5,2.643494401E-3
8.558873910E0,-2.869649325E-5,5.490005715E-4,1.045599231E-3
8.563931671E0,1.569198794E-3,1.636878005E-5,2.110862639E-3
8.569008389E0,1.569198794E-3,1.636878005E-5,2.643494401E-3
8.574066202E0,1.036567031E-3,2.679527504E-3,2.110862639E-3
8.579124014E0,2.101830672E-3,2.146895742E-3,2.110862639E-3
8.584181775E0,3.699725959E-3,1.636878005E-5,-1.966441050E-5
8.589239587E0,1.569198794E-3,2.146895742E-3,1.045599231E-3
8.594297348E0,-5.613282556E-4,1.081632334E-3,1.045599231E-3
8.599348806E0,2.634462435E-3,1.081632334E-3,3.176126163E-3
8.604406618E0,1.569198794E-3,-5.162634188E-4,3.176126163E-3
8.609464431E0,2.101830672E-3,2.146895742E-3,2.110862639E-3
8.614522191E0,1.569198794E-3,2.146895742E-3,1.045599231E-3
8.619580004E0,1.036567031E-3,5.490005715E-4,-5.522961728E-4
8.624637764E0,1.569198794E-3,1.636878005E-5,-1.966441050E-5
8.629683858E0,5.039352691E-4,1.636878005E-5,-1.084927935E-3
8.634741618E0,1.569198794E-3,5.490005715E-4,1.045599231E-3
8.639799431E0,1.036567031E-3,2.146895742E-3,2.110862639E-3
8.644857191E0,5.039352691E-4,1.614264096E-3,2.110862639E-3
8.649915004E0,-2.869649325E-5,2.146895742E-3,2.110862639E-3
8.654972764E0,4.232357722E-3,5.490005715E-4,1.045599231E-3
8.660049014E0,1.036567031E-3,-5.162634188E-4,1.045599231E-3
8.665106827E0,3.167094197E-3,5.490005715E-4,1.045599231E-3
8.670164587E0,2.634462435E-3,1.081632334E-3,-1.966441050E-5
8.675222400E0,2.101830672E-3,1.614264096E-3,2.643494401E-3
8.680280212E0,2.101830672E-3,-5.162634188E-4,2.110862639E-3
8.685337973E0,2.634462435E-3,1.081632334E-3,1.578230876E-3
8.690377764E0,5.039352691E-4,-1.581526478E-3,5.129674682E-4
8.695435525E0,2.634462435E-3,5.490005715E-4,1.578230876E-3
8.700493337E0,1.036567031E-3,1.614264096E-3,1.578230876E-3
8.705551098E0,1.036567031E-3,-1.048894715E-3,-1.966441050E-5
8.710608910E0,2.101830672E-3,5.490005715E-4,5.129674682E-4
8.715666723E0,-5.613282556E-4,1.081632334E-3,2.110862639E-3
8.720725473E0,-5.613282556E-4,1.081632334E-3,1.045599231E-3
8.725783233E0,1.036567031E-3,5.490005715E-4,3.176126163E-3
8.730841046E0,-2.869649325E-5,3.212158335E-3,1.578230876E-3
8.735898858E0,-2.869649325E-5,2.146895742E-3,2.110862639E-3
8.740956618E0,5.039352691E-4,3.744791029E-3,2.643494401E-3
8.746014431E0,2.101830672E-3,2.146895742E-3,5.129674682E-4
8.751082452E0,2.101830672E-3,-5.162634188E-4,3.176126163E-3
8.756140264E0,1.036567031E-3,5.490005715E-4,3.176126163E-3
8.761198077E0,-1.093959552E-3,2.679527504E-3,5.129674682E-4
8.766255837E0,1.569198794E-3,1.081632334E-3,5.129674682E-4
8.771313650E0,-2.869649325E-5,5.490005715E-4,1.578230876E-3
8.776371410E0,2.634462435E-3,-1.048894715E-3,1.045599231E-3
8.781428546E0,-2.869649325E-5,-2.114158357E-3,2.643494401E-3
8.786486358E0,-2.869649325E-5,-5.162634188E-4,1.045599231E-3
8.791544171E0,5.039352691E-4,1.081632334E-3,-5.522961728E-4
8.796601931E0,2.634462435E-3,-5.162634188E-4,-1.966441050E-5
8.801659743E0,1.569198794E-3,1.614264096E-3,2.110862639E-3
8.806717504E0,-2.869649325E-5,1.081632334E-3,5.129674682E-4
8.811776098E0,1.036567031E-3,-5.162634188E-4,5.129674682E-4
8.816833910E0,1.036567031E-3,5.490005715E-4,5.129674682E-4
8.821891671E0,-1.093959552E-3,-1.048894715E-3,2.110862639E-3
8.826949483E0,-5.613282556E-4,1.081632334E-3,-5.522961728E-4
8.832007296E0,5.039352691E-4,1.636878005E-5,5.129674682E-4
8.837065056E0,-5.613282556E-4,2.146895742E-3,1.578230876E-3
8.842105004E0,1.036567031E-3,1.081632334E-3,1.578230876E-3
8.847162764E0,1.036567031E-3,1.636878005E-5,2.643494401E-3
8.852220577E0,2.101830672E-3,2.679527504E-3,5.129674682E-4
8.857278389E0,1.036567031E-3,5.490005715E-4,2.110862639E-3
8.862336150E0,-2.869649325E-5,1.614264096E-3,1.045599231E-3
8.867393962E0,4.764989484E-3,1.636878005E-5,-5.522961728E-4
8.872470421E0,2.101830672E-3,1.636878005E-5,1.045599231E-3
8.877528181E0,-1.093959552E-3,1.614264096E-3,1.578230876E-3
8.882586046E0,5.039352691E-4,1.614264096E-3,3.176126163E-3
8.887643806E0,4.232357722E-3,1.636878005E-5,2.110862639E-3
8.892701618E0,2.101830672E-3,5.490005715E-4,-1.617559465E-3
8.897759379E0,-2.869649325E-5,5.490005715E-4,2.110862639E-3
8.902802400E0,-2.869649325E-5,1.081632334E-3,1.578230876E-3
8.907860160E0,-5.613282556E-4,5.490005715E-4,1.045599231E-3
8.912917973E0,5.039352691E-4,1.614264096E-3,2.110862639E-3
8.917975785E0,5.039352691E-4,2.146895742E-3,-1.966441050E-5
8.923033546E0,2.634462435E-3,4.277423024E-3,-5.522961728E-4
8.928091358E0,4.232357722E-3,1.081632334E-3,-1.617559465E-3
8.933141671E0,1.036567031E-3,5.490005715E-4,-5.522961728E-4
8.938199431E0,1.036567031E-3,2.679527504E-3,1.578230876E-3
8.943257243E0,2.101830672E-3,1.081632334E-3,-1.966441050E-5
8.948315056E0,2.634462435E-3,1.636878005E-5,1.578230876E-3
8.953372816E0,1.036567031E-3,5.490005715E-4,1.045599231E-3
8.958430629E0,1.036567031E-3,2.146895742E-3,1.045599231E-3
8.963498858E0,2.634462435E-3,1.081632334E-3,5.129674682E-4
8.968556618E0,1.036567031E-3,5.490005715E-4,-5.522961728E-4
8.973614431E0,2.634462435E-3,1.614264096E-3,2.110862639E-3
8.978672243E0,1.569198794E-3,-5.162634188E-4,1.578230876E-3
8.983730004E0,2.101830672E-3,5.490005715E-4,1.045599231E-3
8.988787764E0,5.039352691E-4,1.614264096E-3,3.176126163E-3
8.993842504E0,5.039352691E-4,1.614264096E-3,2.110862639E-3
8.998900264E0,3.167094197E-3,2.146895742E-3,5.129674682E-4
9.003958077E0,-2.869649325E-5,-5.162634188E-4,-1.966441050E-5
9.009015889E0,-5.613282556E-4,2.146895742E-3,-5.522961728E-4
9.014073650E0,5.039352691E-4,3.212158335E-3,5.129674682E-4
9.019131462E0,1.569198794E-3,1.614264096E-3,5.129674682E-4
9.024205681E0,1.569198794E-3,2.679527504E-3,2.110862639E-3
9.029263493E0,-5.613282556E-4,-5.162634188E-4,-1.966441050E-5
9.034321306E0,5.039352691E-4,2.146895742E-3,1.045599231E-3
9.039379066E0,1.036567031E-3,1.081632334E-3,1.045599231E-3
9.044436827E0,1.569198794E-3,-5.162634188E-4,-5.522961728E-4
9.049494639E0,2.101830672E-3,-1.581526478E-3,2.643494401E-3
9.054552035E0,5.039352691E-4,1.614264096E-3,2.643494401E-3
9.059609848E0,2.634462435E-3,4.277423024E-3,-5.522961728E-4
9.064667608E0,3.699725959E-3,2.679527504E-3,-1.966441050E-5
9.069725421E0,2.101830672E-3,1.614264096E-3,2.110862639E-3
9.074783233E0,2.101830672E-3,1.636878005E-5,2.110862639E-3
9.079840993E0,3.699725959E-3,2.146895742E-3,-1.084927935E-3
9.084898650E0,-5.613282556E-4,3.212158335E-3,1.578230876E-3
9.089956462E0,-2.869649325E-5,5.490005715E-4,1.045599231E-3
9.095014223E0,-2.869649325E-5,1.614264096E-3,-1.966441050E-5
9.100072035E0,5.039352691E-4,1.614264096E-3,-1.966441050E-5
9.105129848E0,3.167094197E-3,1.614264096E-3,1.045599231E-3
9.110187608E0,1.569198794E-3,5.490005715E-4,1.045599231E-3
9.115246358E0,2.634462435E-3,1.614264096E-3,1.578230876E-3
9.120304171E0,3.167094197E-3,1.081632334E-3,5.129674682E-4
9.125361983E0,-2.869649325E-5,-1.048894715E-3,2.110862639E-3
9.130419743E0,2.101830672E-3,1.636878005E-5,1.578230876E-3
9.135477504E0,2.634462435E-3,2.146895742E-3,-5.522961728E-4
9.140535316E0,-2.869649325E-5,1.081632334E-3,5.129674682E-4
9.145569691E0,1.036567031E-3,-1.048894715E-3,1.045599231E-3
9.150627504E0,-5.613282556E-4,1.081632334E-3,2.110862639E-3
9.155685264E0,-1.626591780E-3,1.081632334E-3,1.045599231E-3
9.160743077E0,-2.869649325E-5,1.614264096E-3,5.129674682E-4
9.165800837E0,-1.093959552E-3,2.146895742E-3,1.045599231E-3
9.170858598E0,5.039352691E-4,1.614264096E-3,-1.966441050E-5
9.175922712E0,5.039352691E-4,2.146895742E-3,-1.084927935E-3
9.180980473E0,-2.869649325E-5,1.614264096E-3,5.129674682E-4
9.186038233E0,1.036567031E-3,1.636878005E-5,-1.966441050E-5
9.191096046E0,2.101830672E-3,1.636878005E-5,1.045599231E-3
9.196153806E0,2.101830672E-3,1.081632334E-3,5.129674682E-4
9.201211566E0,-2.869649325E-5,-5.162634188E-4,1.578230876E-3
9.206285681E0,5.039352691E-4,5.490005715E-4,1.578230876E-3
9.211343493E0,1.569198794E-3,5.490005715E-4,1.045599231E-3
9.216401254E0,5.039352691E-4,2.146895742E-3,-1.084927935E-3
9.221459014E0,2.634462435E-3,1.614264096E-3,-1.084927935E-3
9.226516827E0,1.569198794E-3,1.614264096E-3,-1.966441050E-5
9.231574587E0,-2.869649325E-5,-2.114158357E-3,-1.966441050E-5
9.236610629E0,-2.159223426E-3,5.490005715E-4,1.045599231E-3
9.241668389E0,-2.869649325E-5,3.744791029E-3,3.708757926E-3
9.246726150E0,-5.613282556E-4,1.081632334E-3,1.578230876E-3
9.251783962E0,1.036567031E-3,1.081632334E-3,-5.522961728E-4
9.256841723E0,2.101830672E-3,1.081632334E-3,1.045599231E-3
9.261899483E0,2.634462435E-3,-5.162634188E-4,2.110862639E-3
9.266997191E0,1.569198794E-3,-5.162634188E-4,1.578230876E-3
9.272055004E0,-2.691855188E-3,2.146895742E-3,-5.522961728E-4
9.277112764E0,5.039352691E-4,1.081632334E-3,1.578230876E-3
9.282170525E0,5.039352691E-4,1.081632334E-3,1.045599231E-3
9.287228337E0,3.167094197E-3,2.146895742E-3,-1.966441050E-5
9.292286098E0,5.039352691E-4,-5.162634188E-4,5.129674682E-4
9.297363754E0,1.569198794E-3,-1.048894715E-3,5.129674682E-4
9.302421514E0,3.699725959E-3,5.490005715E-4,1.045599231E-3
9.307479327E0,1.036567031E-3,-5.162634188E-4,1.045599231E-3
9.312537087E0,-5.613282556E-4,1.636878005E-5,-5.522961728E-4
9.317594848E0,1.036567031E-3,3.212158335E-3,5.129674682E-4
9.322652660E0,3.167094197E-3,5.490005715E-4,1.045599231E-3
9.327661671E0,1.569198794E-3,1.081632334E-3,1.045599231E-3
9.332719483E0,3.167094197E-3,-5.162634188E-4,1.045599231E-3
9.337777243E0,2.101830672E-3,5.490005715E-4,1.045599231E-3
9.342835004E0,5.039352691E-4,2.146895742E-3,-5.522961728E-4
9.347892816E0,5.039352691E-4,2.146895742E-3,1.045599231E-3
9.352950577E0,2.101830672E-3,1.636878005E-5,-1.966441050E-5
9.358070421E0,2.101830672E-3,1.081632334E-3,-1.084927935E-3
9.363128233E0,-2.869649325E-5,1.081632334E-3,1.045599231E-3
9.368185993E0,1.036567031E-3,1.636878005E-5,1.045599231E-3
9.373243754E0,1.569198794E-3,5.490005715E-4,1.578230876E-3
9.378301566E0,1.569198794E-3,2.679527504E-3,1.578230876E-3
9.383359327E0,1.036567031E-3,1.081632334E-3,-1.966441050E-5
9.388389535E0,5.039352691E-4,1.614264096E-3,1.045599231E-3
9.393447348E0,2.101830672E-3,1.636878005E-5,1.578230876E-3
9.398505108E0,5.039352691E-4,5.490005715E-4,1.578230876E-3
9.403562868E0,-2.869649325E-5,3.212158335E-3,5.129674682E-4
9.408620681E0,3.167094197E-3,1.614264096E-3,1.045599231E-3
9.413678441E0,-2.869649325E-5,1.081632334E-3,2.110862639E-3
9.418698806E0,-2.869649325E-5,1.636878005E-5,2.643494401E-3
9.423756618E0,-1.626591780E-3,3.744791029E-3,2.110862639E-3
9.428814379E0,-2.869649325E-5,5.490005715E-4,1.045599231E-3
9.433872139E0,1.569198794E-3,3.744791029E-3,1.578230876E-3
9.438929952E0,-5.613282556E-4,3.212158335E-3,1.578230876E-3
9.443987712E0,-2.691855188E-3,-5.162634188E-4,2.110862639E-3
9.449060160E0,-1.093959552E-3,-5.162634188E-4,2.643494401E-3
9.454117921E0,2.634462435E-3,1.081632334E-3,1.045599231E-3
9.459175733E0,2.634462435E-3,5.490005715E-4,1.578230876E-3
9.464233493E0,-1.093959552E-3,1.636878005E-5,-1.966441050E-5
9.469291306E0,-5.613282556E-4,1.081632334E-3,2.110862639E-3
9.474349066E0,2.634462435E-3,1.636878005E-5,3.176126163E-3
9.479423598E0,2.634462435E-3,5.490005715E-4,5.129674682E-4
9.484481410E0,3.167094197E-3,5.490005715E-4,-1.966441050E-5
9.489539171E0,2.101830672E-3,1.636878005E-5,1.045599231E-3
9.494596931E0,5.830253009E-3,5.490005715E-4,5.129674682E-4
9.499654743E0,2.634462435E-3,2.679527504E-3,5.129674682E-4
9.504712452E0,5.039352691E-4,1.081632334E-3,-1.966441050E-5
9.509753910E0,-2.869649325E-5,2.679527504E-3,5.129674682E-4
9.514811723E0,1.036567031E-3,1.081632334E-3,1.045599231E-3
9.519869483E0,2.101830672E-3,1.636878005E-5,1.578230876E-3
9.524927243E0,1.569198794E-3,1.614264096E-3,1.045599231E-3
9.529985056E0,1.569198794E-3,5.490005715E-4,-1.966441050E-5
9.535042764E0,-2.691855188E-3,1.081632334E-3,-5.522961728E-4
9.540102139E0,-2.691855188E-3,2.146895742E-3,5.129674682E-4
9.545159952E0,1.036567031E-3,2.146895742E-3,1.045599231E-3
9.550217712E0,2.634462435E-3,-5.162634188E-4,1.578230876E-3
9.555275473E0,3.167094197E-3,5.490005715E-4,-1.617559465E-3
9.560333285E0,3.167094197E-3,2.679527504E-3,5.129674682E-4
9.565391046E0,1.036567031E-3,-5.162634188E-4,-1.966441050E-5
9.570449691E0,1.036567031E-3,-5.162634188E-4,1.578230876E-3
9.575507452E0,-5.613282556E-4,-5.162634188E-4,1.578230876E-3
9.580565264E0,-2.869649325E-5,1.081632334E-3,-1.966441050E-5
9.585623025E0,2.101830672E-3,1.614264096E-3,1.578230876E-3
9.590680837E0,2.634462435E-3,1.614264096E-3,5.129674682E-4
9.595738598E0,5.039352691E-4,1.636878005E-5,1.578230876E-3
9.600791566E0,1.036567031E-3,2.146895742E-3,1.578230876E-3
9.605849379E0,-2.869649325E-5,2.679527504E-3,3.708757926E-3
9.610907139E0,2.101830672E-3,5.490005715E-4,-1.966441050E-5
9.615964900E0,2.101830672E-3,-5.162634188E-4,-5.522961728E-4
9.621022712E0,-2.869649325E-5,1.081632334E-3,1.578230876E-3
9.626080473E0,2.101830672E-3,1.081632334E-3,2.110862639E-3
9.631131098E0,3.167094197E-3,1.636878005E-5,1.045599231E-3
9.636188858E0,3.699725959E-3,1.636878005E-5,-1.966441050E-5
9.641246618E0,5.039352691E-4,1.081632334E-3,5.129674682E-4
9.646304431E0,-1.093959552E-3,-1.581526478E-3,1.045599231E-3
9.651362191E0,-1.093959552E-3,-5.162634188E-4,5.129674682E-4
9.656419952E0,-2.869649325E-5,1.081632334E-3,1.045599231E-3
9.661466566E0,4.232357722E-3,1.636878005E-5,2.110862639E-3
9.666524327E0,1.036567031E-3,1.636878005E-5,5.129674682E-4
9.671582087E0,2.101830672E-3,-5.162634188E-4,-5.522961728E-4
9.676639900E0,-5.613282556E-4,1.636878005E-5,-1.617559465E-3
9.681697660E0,-2.869649325E-5,2.146895742E-3,-1.966441050E-5
9.686755421E0,2.101830672E-3,2.146895742E-3,3.176126163E-3
9.691820108E0,1.569198794E-3,-5.162634188E-4,2.110862639E-3
9.696877868E0,-5.613282556E-4,1.081632334E-3,1.578230876E-3
9.701935629E0,1.569198794E-3,-5.162634188E-4,-1.084927935E-3
9.706993389E0,1.569198794E-3,5.490005715E-4,-1.966441050E-5
9.712051202E0,1.036567031E-3,1.636878005E-5,1.578230876E-3
9.717108962E0,3.167094197E-3,1.081632334E-3,-1.966441050E-5
9.722183858E0,2.634462435E-3,5.490005715E-4,5.129674682E-4
9.727241671E0,5.039352691E-4,5.490005715E-4,5.129674682E-4
9.732299431E0,1.569198794E-3,3.212158335E-3,2.110862639E-3
9.737357191E0,5.039352691E-4,1.614264096E-3,2.643494401E-3
9.742415004E0,5.039352691E-4,1.081632334E-3,1.578230876E-3
9.747472764E0,-5.613282556E-4,1.081632334E-3,1.578230876E-3
9.752529327E0,1.569198794E-3,2.679527504E-3,5.129674682E-4
9.757587139E0,5.297621246E-3,2.679527504E-3,1.578230876E-3
9.762644900E0,-1.093959552E-3,-5.162634188E-4,2.110862639E-3
9.767702660E0,1.036567031E-3,5.490005715E-4,1.578230876E-3
9.772760473E0,2.101830672E-3,5.490005715E-4,3.708757926E-3
9.777818233E0,5.039352691E-4,5.490005715E-4,1.045599231E-3
9.782876618E0,-2.869649325E-5,2.146895742E-3,-5.522961728E-4
9.787934431E0,-5.613282556E-4,5.490005715E-4,1.045599231E-3
9.792992191E0,1.569198794E-3,1.614264096E-3,5.129674682E-4
9.798049952E0,1.569198794E-3,1.081632334E-3,1.578230876E-3
9.803107764E0,-5.613282556E-4,1.081632334E-3,2.110862639E-3
9.808165525E0,-2.869649325E-5,5.490005715E-4,2.643494401E-3
9.813223493E0,5.039352691E-4,1.081632334E-3,1.578230876E-3
9.818281254E0,2.634462435E-3,1.614264096E-3,1.045599231E-3
9.823339066E0,2.101830672E-3,1.614264096E-3,1.045599231E-3
9.828396827E0,1.569198794E-3,-1.581526478E-3,-5.522961728E-4
9.833454639E0,1.569198794E-3,5.490005715E-4,-1.084927935E-3
9.838512400E0,-1.093959552E-3,1.614264096E-3,2.110862639E-3
9.843569952E0,-5.613282556E-4,-1.048894715E-3,1.578230876E-3
9.848627764E0,2.101830672E-3,1.081632334E-3,1.578230876E-3
9.853685525E0,1.569198794E-3,-5.162634188E-4,1.578230876E-3
9.858743285E0,-2.869649325E-5,1.614264096E-3,2.110862639E-3
9.863801098E0,-1.093959552E-3,1.081632334E-3,2.643494401E-3
9.868858858E0,1.036567031E-3,1.081632334E-3,2.110862639E-3
9.873925577E0,1.569198794E-3,1.081632334E-3,4.241389688E-3
9.878983389E0,4.232357722E-3,1.614264096E-3,2.110862639E-3
9.884041150E0,-2.869649325E-5,2.146895742E-3,1.578230876E-3
9.889098910E0,5.039352691E-4,1.081632334E-3,1.578230876E-3
9.894156723E0,-2.869649325E-5,1.614264096E-3,-1.966441050E-5
9.899214483E0,1.569198794E-3,5.490005715E-4,5.129674682E-4
9.904251671E0,1.569198794E-3,1.636878005E-5,-5.522961728E-4
9.909309483E0,2.101830672E-3,1.636878005E-5,5.129674682E-4
9.914367243E0,-2.159223426E-3,5.490005715E-4,2.110862639E-3
9.919425056E0,-1.093959552E-3,1.081632334E-3,1.578230876E-3
9.924482764E0,1.036567031E-3,1.636878005E-5,-1.084927935E-3
9.929540577E0,2.101830672E-3,1.081632334E-3,5.129674682E-4
9.934596514E0,5.039352691E-4,-5.162634188E-4,3.176126163E-3
9.939654327E0,1.036567031E-3,2.146895742E-3,3.176126163E-3
9.944712087E0,1.569198794E-3,1.081632334E-3,1.578230876E-3
9.949769900E0,-2.869649325E-5,2.146895742E-3,1.578230876E-3
9.954827608E0,2.634462435E-3,3.212158335E-3,5.129674682E-4
9.959885421E0,2.101830672E-3,1.614264096E-3,2.643494401E-3
9.964934743E0,5.039352691E-4,-5.162634188E-4,2.110862639E-3
9.969992556E0,-1.626591780E-3,2.146895742E-3,1.045599231E-3
9.975050316E0,1.036567031E-3,1.636878005E-5,1.578230876E-3
9.980108129E0,5.039352691E-4,1.081632334E-3,1.578230876E-3
9.985165889E0,3.167094197E-3,2.146895742E-3,-5.522961728E-4
9.990223650E0,3.167094197E-3,5.490005715E-4,-5.522961728E-4
9.995283181E0,2.634462435E-3,1.636878005E-5,2.643494401E-3
1.000034094E1,5.297621246E-3,-5.162634188E-4,5.129674682E-4
1.000539870E1,3.167094197E-3,3.212158335E-3,2.110862639E-3
1.001045651E1,3.167094197E-3,2.679527504E-3,4.774021450E-3
1.001551428E1,4.232357722E-3,1.081632334E-3,1.045599231E-3
1.002057204E1,2.101830672E-3,5.490005715E-4,5.129674682E-4
1.002565120E1,1.036567031E-3,5.490005715E-4,1.578230876E-3
1.003070901E1,5.039352691E-4,1.081632334E-3,1.045599231E-3
1.003576678E1,5.039352691E-4,2.679527504E-3,1.578230876E-3
1.004082454E1,-5.613282556E-4,1.614264096E-3,2.110862639E-3
1.004588235E1,-1.093959552E-3,1.081632334E-3,1.045599231E-3
1.005094011E1,4.232357722E-3,1.614264096E-3,-5.522961728E-4
1.005599823E1,1.569198794E-3,1.614264096E-3,5.129674682E-4
1.006105605E1,5.039352691E-4,1.636878005E-5,-1.966441050E-5
1.006611381E1,2.101830672E-3,-5.162634188E-4,-5.522961728E-4
1.007117157E1,1.036567031E-3,2.679527504E-3,-5.522961728E-4
1.007622938E1,2.634462435E-3,1.636878005E-5,5.129674682E-4
1.008128714E1,5.039352691E-4,1.614264096E-3,1.045599231E-3
1.008634454E1,-1.093959552E-3,2.679527504E-3,-1.966441050E-5
1.009140235E1,1.036567031E-3,2.679527504E-3,-5.522961728E-4
1.009646011E1,3.167094197E-3,1.081632334E-3,-5.522961728E-4
1.010151787E1,3.167094197E-3,1.614264096E-3,1.578230876E-3
1.010657568E1,1.569198794E-3,1.614264096E-3,1.578230876E-3
1.011163344E1,-1.093959552E-3,1.636878005E-5,5.129674682E-4
1.011669204E1,5.039352691E-4,-5.162634188E-4,2.110862639E-3
1.012174980E1,5.039352691E-4,-1.048894715E-3,3.176126163E-3
1.012680761E1,1.036567031E-3,1.081632334E-3,-1.084927935E-3
1.013186537E1,-2.869649325E-5,1.081632334E-3,5.129674682E-4
1.013692318E1,5.039352691E-4,2.146895742E-3,5.129674682E-4
1.014198094E1,3.167094197E-3,5.490005715E-4,-1.084927935E-3
1.014702855E1,3.699725959E-3,1.081632334E-3,-1.966441050E-5
1.015208641E1,-2.869649325E-5,2.146895742E-3,5.129674682E-4
1.015714428E1,5.039352691E-4,1.081632334E-3,1.578230876E-3
1.016220214E1,-2.869649325E-5,3.212158335E-3,-1.966441050E-5
1.016725995E1,-5.613282556E-4,1.614264096E-3,1.045599231E-3
1.017231782E1,-2.691855188E-3,-5.162634188E-4,2.110862639E-3
1.017738500E1,1.569198794E-3,1.081632334E-3,-1.966441050E-5
1.018244287E1,2.634462435E-3,1.636878005E-5,-1.084927935E-3
1.018750073E1,1.036567031E-3,1.614264096E-3,1.578230876E-3
1.019255855E1,1.036567031E-3,2.146895742E-3,2.110862639E-3
1.019761641E1,3.167094197E-3,-5.162634188E-4,2.643494401E-3
1.020267428E1,3.167094197E-3,-1.581526478E-3,2.643494401E-3
1.020772334E1,-3.224486951E-3,5.490005715E-4,-1.966441050E-5
