"Time (s)","Gyroscope x (rad/s)","Gyroscope y (rad/s)","Gyroscope z (rad/s)"
6.106975500E-2,6.257507205E-2,-4.567367136E-1,-5.226032808E-2
6.609157800E-2,4.925928265E-2,-4.567367136E-1,-4.853190854E-2
7.115241100E-2,2.529085428E-2,-4.572693706E-1,-3.521611169E-2
7.622246300E-2,-1.039547380E-2,-4.940209389E-1,7.927059196E-3
8.130553600E-2,-4.608180001E-2,-5.467514992E-1,4.254812375E-2
8.632840000E-2,-7.697445154E-2,-5.973514915E-1,7.024497539E-2
9.137709800E-2,-1.030734032E-1,-6.287767291E-1,8.728919923E-2
9.645282800E-2,-1.169218272E-1,-6.154609323E-1,9.261551499E-2
1.014980360E-1,-1.217155084E-1,-5.451535583E-1,8.995234966E-2
1.065465780E-1,-1.158565655E-1,-4.183872342E-1,8.409340680E-2
1.116152750E-1,-1.052039340E-1,-2.516734898E-1,6.651655585E-2
1.166697550E-1,-8.815971762E-2,-7.377449423E-2,3.935233504E-2
1.217317860E-1,-8.070287108E-2,8.015608042E-2,5.796531681E-3
1.268351190E-1,-8.283339441E-2,1.813561171E-1,-2.722663805E-2
1.318613690E-1,-1.068018302E-1,2.143792808E-1,-5.385822430E-2
1.369160050E-1,-1.536734104E-1,1.685729623E-1,-7.196769863E-2
1.419712650E-1,-2.298397571E-1,5.565501750E-2,-8.048980683E-2
1.470447030E-1,-3.235829473E-1,-1.025366113E-1,-8.155506849E-2
1.521101710E-1,-4.365008771E-1,-2.878924310E-1,-7.303296030E-2
1.571665250E-1,-5.558103323E-1,-4.812377691E-1,-5.918454006E-2
1.622048070E-1,-6.719240546E-1,-6.649957299E-1,-4.427085444E-2
1.673657960E-1,-7.843093872E-1,-8.253178596E-1,-3.628137708E-2
1.723197030E-1,-8.876399398E-1,-9.456926584E-1,-3.148769215E-2
1.774869940E-1,-9.781873226E-1,-1.028783202E0,-2.775926888E-2
1.824162130E-1,-1.050092578E0,-1.106014848E0,-2.882453240E-2
1.874853800E-1,-1.115073681E0,-1.170995831E0,-3.734663874E-2
1.925491300E-1,-1.176326394E0,-1.190703273E0,-5.066243187E-2
1.975982960E-1,-1.225328445E0,-1.168865323E0,-6.717400998E-2
2.026649110E-1,-1.244503140E0,-1.143298984E0,-9.167507291E-2
2.078118380E-1,-1.241840005E0,-1.104949474E0,-1.188392937E-1
2.127697550E-1,-1.221067309E0,-1.038370490E0,-1.523950994E-1
2.178552750E-1,-1.184848428E0,-9.643347859E-1,-1.896793246E-1
2.228856400E-1,-1.164075732E0,-8.562105298E-1,-2.093867064E-1
2.280305360E-1,-1.164075732E0,-7.219873071E-1,-2.088540643E-1
2.329984530E-1,-1.172065258E0,-6.090694070E-1,-2.056582868E-1
2.381489730E-1,-1.171000004E0,-5.600672960E-1,-2.056582868E-1
2.431282960E-1,-1.161412716E0,-5.904272795E-1,-2.093867064E-1
2.482267340E-1,-1.137976885E0,-6.905620694E-1,-2.147130072E-1
2.532530880E-1,-1.105486274E0,-8.663305044E-1,-2.232351303E-1
2.583078280E-1,-1.093768358E0,-1.050621152E0,-2.168435305E-1
2.633766820E-1,-1.117204189E0,-1.163006425E0,-1.800919473E-1
2.684412650E-1,-1.180054784E0,-1.210943222E0,-1.135129780E-1
2.734862130E-1,-1.272732615E0,-1.238640070E0,-2.562874183E-2
2.785437130E-1,-1.394172668E0,-1.270598054E0,7.184287161E-2
2.835985050E-1,-1.543309689E0,-1.313208461E0,1.831628978E-1
2.886868380E-1,-1.715882301E0,-1.362743258E0,3.008745313E-1
2.937063170E-1,-1.903368592E0,-1.386179090E0,4.175208807E-1
2.987731920E-1,-2.099910021E0,-1.403223276E0,5.320367217E-1
3.038293380E-1,-2.285798550E0,-1.485781312E0,6.337693334E-1
3.088870980E-1,-2.461034298E0,-1.588579178E0,7.099356651E-1
3.139480880E-1,-2.615497589E0,-1.644505501E0,7.690578103E-1
3.190214210E-1,-2.741198778E0,-1.643972754E0,8.063420653E-1
3.240628280E-1,-2.839735508E0,-1.578991771E0,8.393652439E-1
3.291816820E-1,-2.896727324E0,-1.457551718E0,8.707904816E-1
3.341761610E-1,-2.897792339E0,-1.304153800E0,8.926283717E-1
3.392540250E-1,-2.833343983E0,-1.146494746E0,9.048789144E-1
3.442842860E-1,-2.723088980E0,-9.797810912E-1,8.958241940E-1
3.493306400E-1,-2.559571266E0,-7.427599430E-1,9.086073637E-1
3.544088690E-1,-2.342789888E0,-4.636609256E-1,9.666641951E-1
3.594643380E-1,-2.107366800E0,-2.799029648E-1,1.058809638E0
3.645366820E-1,-1.885259271E0,-1.824313700E-1,1.180782199E0
3.695837130E-1,-1.680196047E0,-8.069870621E-2,1.320864439E0
3.748098590E-1,-1.493242264E0,3.989744931E-3,1.445500255E0
3.797845460E-1,-1.323865294E0,6.257923692E-2,1.543504357E0
3.847701710E-1,-1.174195766E0,1.153097749E-1,1.626062393E0
3.898238170E-1,-1.053288460E0,1.930740178E-1,1.706489801E0
3.949008480E-1,-9.568820596E-1,1.952045411E-1,1.744306684E0
3.999206920E-1,-8.796504140E-1,1.488655806E-1,1.735251784E0
4.049826710E-1,-8.210609555E-1,1.057224125E-1,1.720870852E0
4.100477750E-1,-7.773851752E-1,5.299185961E-2,1.696369767E0
4.150859530E-1,-7.358399034E-1,-1.997868344E-2,1.653759241E0
4.201487130E-1,-6.916314363E-1,-8.975344896E-2,1.602094054E0
4.252048590E-1,-6.410313845E-1,-1.717787385E-1,1.534982324E0
4.302706400E-1,-5.781809092E-1,-2.649892867E-1,1.450293899E0
4.353850670E-1,-5.068082213E-1,-3.470145762E-1,1.344832778E0
4.403718900E-1,-4.338377416E-1,-4.093325138E-1,1.223925471E0
4.454573590E-1,-3.502145410E-1,-4.295724928E-1,1.082245350E0
4.505085050E-1,-2.564713359E-1,-4.072019458E-1,9.277821183E-1
4.555751710E-1,-1.462165713E-1,-3.438187838E-1,7.552094460E-1
4.606223070E-1,-3.170074150E-2,-2.516734898E-1,5.837019682E-1
4.656957960E-1,7.482559979E-2,-1.398208141E-1,4.137924612E-1
4.707514730E-1,1.659056395E-1,-2.051131614E-2,2.460134625E-1
4.758097550E-1,2.388761938E-1,9.453713894E-2,9.048498422E-2
4.808635570E-1,2.862803936E-1,1.808234900E-1,-4.906453937E-2
4.859536090E-1,3.107814491E-1,2.308908850E-1,-1.646456271E-1
4.909524630E-1,3.198361993E-1,2.420761287E-1,-2.605193257E-1
4.960242340E-1,3.224993646E-1,2.282277197E-1,-3.313593566E-1
5.010886610E-1,3.256951571E-1,1.957371831E-1,-3.750351667E-1
5.061768380E-1,3.491309583E-1,1.557897925E-1,-3.984709680E-1
5.112026190E-1,3.981330693E-1,1.185055599E-1,-4.016667604E-1
5.162728800E-1,4.588530958E-1,9.826555848E-2,-3.947425485E-1
5.213187130E-1,5.280953050E-1,9.773293138E-2,-3.814267516E-1
5.263575670E-1,5.957395434E-1,1.078529358E-1,-3.761004508E-1
5.314333480E-1,6.585900784E-1,1.211687252E-1,-3.782309592E-1
5.365000150E-1,7.182448506E-1,1.302234828E-1,-3.840899169E-1
5.415394420E-1,7.640511394E-1,1.227666214E-1,-3.920793831E-1
5.466067340E-1,7.981395721E-1,1.003960818E-1,-3.958078027E-1
5.516665780E-1,8.210427761E-1,6.950344890E-2,-3.963404298E-1
5.567387650E-1,8.311627507E-1,3.541501611E-2,-4.016667604E-1
5.617858480E-1,8.332932591E-1,2.391848713E-3,-4.027320445E-1
5.668409530E-1,8.316953778E-1,-1.784815826E-2,-4.075257182E-1
5.718977230E-1,8.300974965E-1,-3.222921491E-2,-4.123193920E-1
5.770799110E-1,8.327606320E-1,-4.075132310E-2,-4.027320445E-1
5.820114210E-1,8.439458609E-1,-4.927343130E-2,-3.856878281E-1
5.870535570E-1,8.561964631E-1,-6.418712437E-2,-3.537299037E-1
5.921162130E-1,8.593922257E-1,-8.762291819E-2,-3.084561825E-1
5.972599630E-1,8.551312089E-1,-1.211787239E-1,-2.546603978E-1
6.022447550E-1,8.487395644E-1,-1.648545265E-1,-2.024624795E-1
6.072930880E-1,8.407500982E-1,-2.159871757E-1,-1.502645761E-1
6.123567860E-1,8.354237676E-1,-2.617934942E-1,-9.913191944E-2
6.173970980E-1,8.327606320E-1,-3.075998425E-1,-5.758664384E-2
6.224818900E-1,8.338258862E-1,-3.427535295E-1,-2.562874183E-2
6.276126710E-1,8.428806663E-1,-3.528735340E-1,1.002845820E-3
6.325916300E-1,8.625880480E-1,-3.347640634E-1,2.390600927E-2
6.377303280E-1,8.934806585E-1,-2.905556262E-1,3.881970048E-2
6.426961090E-1,9.414175153E-1,-2.197155952E-1,4.680917785E-2
6.478416820E-1,9.936154485E-1,-1.206460893E-1,5.373338982E-2
6.528250150E-1,1.050074339E0,-3.467099741E-3,6.119023263E-2
6.579029840E-1,1.112392306E0,1.296908408E-1,7.024497539E-2
6.629378800E-1,1.164590240E0,2.724361420E-1,7.770182937E-2
6.680359530E-1,1.202407122E0,4.162467122E-1,9.101761132E-2
6.730614210E-1,1.229571342E0,5.611225367E-1,1.069965735E-1
6.781318380E-1,1.248746037E0,7.006720901E-1,1.256386787E-1
6.831680360E-1,1.271116614E0,8.231773973E-1,1.474765837E-1
6.882443900E-1,1.295084953E0,9.238447547E-1,1.623902768E-1
6.932765780E-1,1.325977683E0,9.904237390E-1,1.709123701E-1
6.983662650E-1,1.363794446E0,1.023979545E0,1.634555310E-1
7.034020980E-1,1.403209209E0,1.029305935E0,1.416176260E-1
7.084376190E-1,1.437297583E0,1.008000612E0,1.053986698E-1
7.135153280E-1,1.463396668E0,9.637921453E-1,5.586391687E-2
7.185761090E-1,1.475114584E0,8.870931864E-1,4.198636394E-3
7.236352750E-1,1.478842974E0,7.832300067E-1,-4.959717020E-2
7.287165250E-1,1.480440855E0,6.623226404E-1,-1.055234969E-1
7.337444940E-1,1.475114584E0,5.350236297E-1,-1.635803729E-1
7.388515780E-1,1.468722939E0,4.173119962E-1,-2.216372192E-1
7.438525150E-1,1.469255686E0,3.129161894E-1,-2.796940804E-1
7.489674110E-1,1.469788194E0,2.298256010E-1,-3.334898949E-1
7.539780880E-1,1.458070397E0,1.707034856E-1,-3.851551712E-1
7.590942860E-1,1.443156600E0,1.323540062E-1,-4.314941168E-1
7.640932960E-1,1.421318769E0,1.179729328E-1,-4.533320367E-1
7.691448070E-1,1.403209209E0,1.243645251E-1,-4.400162399E-1
7.742173070E-1,1.388828158E0,1.488655806E-1,-3.926120102E-1
7.792898070E-1,1.370718598E0,1.882803291E-1,-3.185762167E-1
7.843271500E-1,1.341423988E0,2.186403424E-1,-2.349530160E-1
7.894342340E-1,1.292954445E0,2.399456203E-1,-1.433403641E-1
7.944284000E-1,1.200809240E0,2.559245825E-1,-4.000979662E-2
7.995010050E-1,1.056998610E0,2.804256380E-1,7.876709104E-2
8.045680360E-1,8.625880480E-1,2.948066890E-1,2.145881802E-1
8.096067860E-1,6.154468656E-1,2.346192896E-1,3.514745235E-1
8.146893380E-1,3.251625001E-1,1.730553806E-2,4.723819494E-1
8.197273590E-1,-2.938629361E-3,-3.896251023E-1,5.607988238E-1
8.247826710E-1,-3.480840027E-1,-9.755200148E-1,6.103335619E-1
8.298347550E-1,-6.926966906E-1,-1.609884381E0,6.167251468E-1
8.349241820E-1,-1.004818916E0,-2.089253187E0,5.714514256E-1
8.399806920E-1,-1.194968462E0,-2.195246696E0,4.851651192E-1
8.450110570E-1,-1.133183241E0,-1.860221386E0,3.578661382E-1
8.500846500E-1,-7.736567259E-1,-1.123591542E0,1.815650016E-1
8.551478800E-1,-2.016102821E-1,-8.229660243E-2,-4.693401232E-2
8.601738690E-1,3.826867342E-1,1.099613428E0,-3.025972545E-1
8.652526190E-1,7.826932669E-1,2.206954718E0,-5.289657712E-1
8.703145460E-1,9.392870069E-1,3.095916986E0,-6.956794858E-1
8.754535570E-1,9.115900993E-1,3.687670946E0,-8.043363690E-1
8.804364210E-1,7.747037411E-1,3.905517340E0,-8.938185573E-1
8.855167860E-1,5.696405172E-1,3.641864538E0,-9.454838037E-1
8.905194940E-1,3.256951571E-1,2.792316914E0,-8.959490061E-1
8.956253800E-1,5.565086752E-2,1.397887111E0,-7.334963083E-1
9.006569420E-1,-1.962839514E-1,-1.616587192E-1,-5.470752716E-1
9.057254320E-1,-3.938903511E-1,-1.399494886E0,-4.527994394E-1
9.107718380E-1,-5.131998062E-1,-2.119080544E0,-5.081930757E-1
9.158626190E-1,-5.659303069E-1,-2.370482445E0,-6.296331882E-1
9.208856920E-1,-5.627345443E-1,-2.261825562E0,-6.594605446E-1
9.259393380E-1,-5.201240182E-1,-1.939050794E0,-5.476078391E-1
9.310041300E-1,-4.631324708E-1,-1.479389668E0,-3.494688570E-1
9.361255360E-1,-3.677913845E-1,-9.446274042E-1,-1.262961477E-1
9.411182960E-1,-1.898923814E-1,-4.322356582E-1,5.533128604E-2
9.461809530E-1,7.216244191E-2,5.938344449E-2,1.458786726E-1
9.512341300E-1,4.034593701E-1,5.861562490E-1,1.634555310E-1
9.563251710E-1,7.763016820E-1,1.090026021E0,1.421502531E-1
9.613518380E-1,1.121447086E0,1.468194604E0,9.794183075E-2
9.664764730E-1,1.402676702E0,1.693497777E0,4.734181240E-2
9.714685570E-1,1.608805060E0,1.797893524E0,7.927059196E-3
9.766074110E-1,1.727581978E0,1.819198847E0,-7.519262843E-3
9.815824630E-1,1.766996741E0,1.787773490E0,1.002845820E-3
9.866258480E-1,1.738234639E0,1.715868235E0,2.869969606E-2
9.916954840E-1,1.656209350E0,1.602417707E0,7.397340238E-2
9.967448590E-1,1.556074619E0,1.435171366E0,1.181818396E-1
1.001817880E0,1.453276634E0,1.210400701E0,1.442807913E-1
1.006876838E0,1.352076530E0,9.382258654E-1,1.448134184E-1
1.011928348E0,1.248746037E0,6.484741569E-1,1.192471012E-1
1.016970848E0,1.136893392E0,3.651140928E-1,7.823445648E-2
1.022046890E0,1.022377491E0,1.067876741E-1,3.349338472E-2
1.027121630E0,9.137206674E-1,-1.073302925E-1,-6.241770461E-5
1.032159182E0,8.258364797E-1,-2.729787827E-1,-4.856103566E-3
1.037219598E0,7.624532580E-1,-3.880272210E-1,1.112284884E-2
1.042276942E0,7.219732404E-1,-4.588672221E-1,4.041759670E-2
1.047318192E0,7.049290538E-1,-4.972167313E-1,7.077760994E-2
1.052390223E0,7.081247568E-1,-4.881620109E-1,1.016702577E-1
1.057455953E0,7.230384946E-1,-4.253114462E-1,1.245734170E-1
1.062507411E0,7.416806221E-1,-3.012082279E-1,1.405523717E-1
1.067575953E0,7.565943003E-1,-1.217113510E-1,1.410849839E-1
1.072624859E0,7.656490207E-1,9.134135395E-2,1.293670982E-1
1.077677932E0,7.672469020E-1,3.113182783E-1,1.123228893E-1
1.082739494E0,7.597900629E-1,5.163815022E-1,8.462603390E-2
1.087800328E0,7.480721474E-1,6.926826239E-1,5.266812816E-2
1.092854078E0,7.331584692E-1,8.322321177E-1,2.390600927E-2
1.097933609E0,7.091900706E-1,9.313015938E-1,-6.241770461E-5
1.102965015E0,6.788300276E-1,9.904237390E-1,-9.649788961E-3
1.108060380E0,6.458069086E-1,1.003739595E0,-1.071505342E-2
1.113085536E0,6.149142981E-1,9.680532217E-1,-5.921366625E-3
1.118120119E0,5.834890008E-1,9.052026868E-1,3.666004632E-3
1.123197828E0,5.547268391E-1,8.332974315E-1,1.272074319E-2
1.128309286E0,5.270299911E-1,7.656531930E-1,1.911232434E-2
1.133316786E0,5.057247281E-1,7.118573189E-1,2.071022056E-2
1.138400848E0,4.753646851E-1,6.719099283E-1,2.124285139E-2
1.143431317E0,4.343520105E-1,6.346257925E-1,2.017758787E-2
1.148491786E0,3.858825266E-1,5.984067917E-1,1.538390294E-2
1.153547880E0,3.278256953E-1,5.632531047E-1,7.927059196E-3
1.158627046E0,2.655077577E-1,5.360888243E-1,-3.790840041E-3
1.163664234E0,2.042551190E-1,5.222404599E-1,-1.391084306E-2
1.168719390E0,1.467308998E-1,5.312951803E-1,-2.243295312E-2
1.173785119E0,9.666350484E-2,5.563288927E-1,-2.882453240E-2
1.178880848E0,5.085717887E-2,5.856236219E-1,-3.574874252E-2
1.183891213E0,8.246637881E-3,6.111899018E-1,-4.214032367E-2
1.188996838E0,-2.371126600E-2,6.191794276E-1,-4.799927399E-2
1.194011786E0,-5.194075033E-2,6.010699272E-1,-6.024980173E-2
1.199126630E0,-8.443129063E-2,5.579267740E-1,-7.569612563E-2
1.204125067E0,-1.227807924E-1,4.950762391E-1,-8.954454958E-2
1.209176890E0,-1.605976224E-1,4.135835767E-1,-1.033929735E-1
1.214243088E0,-1.984144747E-1,3.155793250E-1,-1.161761358E-1
1.219285119E0,-2.271765918E-1,2.154445648E-1,-1.236329749E-1
1.224363505E0,-2.506124079E-1,1.195708439E-1,-1.241656169E-1
1.229426369E0,-2.745808363E-1,3.701291233E-2,-1.241656169E-1
1.234471578E0,-2.948208451E-1,-2.264184318E-2,-1.316224635E-1
1.239546786E0,-3.171913624E-1,-5.406711996E-2,-1.438729912E-1
1.244617359E0,-3.427577019E-1,-6.312185526E-2,-1.603845805E-1
1.249644859E0,-3.683240414E-1,-5.459975451E-2,-1.870161593E-1
1.254711057E0,-4.008145630E-1,-2.210921235E-2,-2.232351303E-1
1.259736109E0,-4.402292967E-1,1.890343428E-2,-2.647804022E-1
1.264800692E0,-4.812419415E-1,6.417713314E-2,-3.105867505E-1
1.269862880E0,-5.259829164E-1,1.094508246E-1,-3.547951877E-1
1.274957828E0,-5.946924686E-1,1.440718919E-1,-3.974057138E-1
1.280004598E0,-6.868377328E-1,1.637792736E-1,-4.410814941E-1
1.285064650E0,-7.875051498E-1,1.621813774E-1,-4.751699269E-1
1.290085380E0,-9.036188722E-1,1.360824257E-1,-4.980731010E-1
1.295181057E0,-1.055418968E0,6.950344890E-2,-5.161826015E-1
1.300236682E0,-1.244503140E0,-6.152396649E-2,-5.337594748E-1
1.305362619E0,-1.462349534E0,-2.495429665E-1,-5.566625595E-1
1.310337619E0,-1.681261182E0,-4.604651332E-1,-5.896857977E-1
1.315397411E0,-1.878867626E0,-6.559410095E-1,-6.413510442E-1
1.320455953E0,-2.055168867E0,-8.061431646E-1,-7.063321471E-1
1.325544859E0,-2.225078583E0,-8.918968439E-1,-7.782374024E-1
1.330574911E0,-2.393390179E0,-9.201263785E-1,-8.368268609E-1
1.335655275E0,-2.563299656E0,-8.918968439E-1,-8.751763701E-1
1.340729442E0,-2.727350235E0,-8.338400126E-1,-8.863616586E-1
1.345771630E0,-2.881280661E0,-7.763157487E-1,-8.735784888E-1
1.350804911E0,-3.022428274E0,-7.203894258E-1,-8.400226831E-1
1.355880119E0,-3.144933462E0,-6.852357388E-1,-7.830311060E-1
1.360918713E0,-3.231752396E0,-6.831052303E-1,-7.026036978E-1
1.365990692E0,-3.289809227E0,-7.001494169E-1,-6.003383994E-1
1.371035119E0,-3.330821991E0,-7.363683581E-1,-4.788983762E-1
1.376129703E0,-3.347866058E0,-8.189262748E-1,-3.590562344E-1
1.381148088E0,-3.342540026E0,-9.632694721E-1,-2.594541013E-1
1.386192775E0,-3.322832584E0,-1.117200136E0,-1.657108963E-1
1.391232255E0,-3.289276838E0,-1.241835833E0,-5.492348596E-2
1.396271682E0,-3.236013651E0,-1.324393868E0,9.261551499E-2
1.401311161E0,-3.156651258E0,-1.367004275E0,2.529376745E-1
1.406350640E0,-3.049592495E0,-1.377657056E0,3.930198252E-1
1.411390119E0,-2.935076714E0,-1.359014869E0,5.267103910E-1
1.416595067E0,-2.818962812E0,-1.349427462E0,6.556072235E-1
1.421634546E0,-2.723621845E0,-1.322795868E0,7.594704628E-1
1.426673973E0,-2.632541656E0,-1.272728562E0,8.484199643E-1
1.431713453E0,-2.528678656E0,-1.241835833E0,9.102053046E-1
1.436752932E0,-2.433870077E0,-1.165136814E0,9.229884148E-1
1.441792411E0,-2.337463856E0,-9.893684983E-1,8.819757700E-1
1.446895848E0,-2.226143837E0,-8.125347495E-1,7.999504805E-1
1.451935328E0,-2.108964920E0,-7.587389350E-1,7.163273096E-1
1.456974807E0,-1.989655018E0,-7.331725955E-1,6.508136392E-1
1.462014234E0,-1.859160304E0,-6.612672806E-1,5.959525108E-1
1.467053713E0,-1.727067590E0,-5.728504062E-1,5.538746119E-1
1.472093192E0,-1.580061197E0,-4.705851376E-1,5.277756453E-1
1.477258557E0,-1.421337008E0,-4.034735560E-1,5.112640262E-1
1.482298036E0,-1.255155802E0,-4.077346027E-1,4.931545854E-1
1.487337463E0,-1.089507461E0,-4.615304172E-1,4.766429961E-1
1.492376942E0,-9.350441694E-1,-5.227830410E-1,4.745124578E-1
1.497416369E0,-7.960272431E-1,-5.616651773E-1,5.038072467E-1
1.502455900E0,-6.660650969E-1,-6.463536024E-1,5.378956199E-1
1.507572411E0,-5.430272222E-1,-7.800441980E-1,5.597335100E-1
1.512611890E0,-4.476861656E-1,-8.972231746E-1,5.698535442E-1
1.517651369E0,-3.821724653E-1,-1.015467405E0,5.645272136E-1
1.522690848E0,-3.454208672E-1,-1.165669560E0,5.426893234E-1
1.527730275E0,-3.321050704E-1,-1.327056885E0,5.032745600E-1
1.532769755E0,-3.363661170E-1,-1.469269633E0,4.723819494E-1
1.537940223E0,-3.406271636E-1,-1.576861262E0,4.510766864E-1
1.542979703E0,-3.326376975E-1,-1.644505501E0,4.489461482E-1
1.548019130E0,-3.187892735E-1,-1.682322264E0,4.590661526E-1
1.553058609E0,-2.889618874E-1,-1.695105433E0,4.665229917E-1
1.558098088E0,-2.484818846E-1,-1.696170807E0,4.659903646E-1
1.563137567E0,-1.866965741E-1,-1.680724382E0,4.548051059E-1
1.568298921E0,-9.721445292E-2,-1.647701263E0,4.249777198E-1
1.573338453E0,1.623611525E-2,-1.591242313E0,3.887587786E-1
1.578377932E0,1.493940502E-1,-1.511880159E0,3.525398076E-1
1.583417359E0,2.937372327E-1,-1.407484412E0,3.163208365E-1
1.588456786E0,4.407436252E-1,-1.288707376E0,2.854281962E-1
1.593496265E0,5.850868821E-1,-1.153419018E0,2.529376745E-1
1.598620484E0,7.118532658E-1,-1.007477999E0,2.177839577E-1
1.603659963E0,8.103901148E-1,-8.482210636E-1,1.852934211E-1
1.608699442E0,8.785669804E-1,-6.665936708E-1,1.570639461E-1
1.613738921E0,9.089269638E-1,-4.849662185E-1,1.426828951E-1
1.618778348E0,9.073290825E-1,-3.438187838E-1,1.272365749E-1
1.623817828E0,8.796322346E-1,-2.846966684E-1,1.027355194E-1
1.629041161E0,8.418154120E-1,-3.006756306E-1,7.184287161E-2
1.634080536E0,7.954764366E-1,-3.411556184E-1,4.840707406E-2
1.639120015E0,7.459416986E-1,-3.550040424E-1,3.402601555E-2
1.644159442E0,6.884174347E-1,-3.246440291E-1,3.455865011E-2
1.649198869E0,6.271647811E-1,-2.548692822E-1,4.521128163E-2
1.654238400E0,5.600531697E-1,-1.504734606E-1,5.479865521E-2
1.659312255E0,4.780278206E-1,-1.997868344E-2,7.184287161E-2
1.664351682E0,3.794909716E-1,1.131792516E-1,9.048498422E-2
1.669391161E0,2.639098763E-1,2.324887663E-1,1.133881509E-1
1.674430640E0,1.275561601E-1,3.086551130E-1,1.453460455E-1
1.679470067E0,-2.051547542E-2,3.214382827E-1,1.773039550E-1
1.684509546E0,-1.739134192E-1,2.628487647E-1,2.097944915E-1
1.689721942E0,-3.198545277E-1,1.296908408E-1,2.417524010E-1
1.694761421E0,-4.359682500E-1,-6.951344013E-2,2.598618865E-1
1.699800900E0,-5.116019249E-1,-3.230461478E-1,2.577313483E-1
1.704840328E0,-5.392987132E-1,-6.165262461E-1,2.332302779E-1
1.709879807E0,-5.153303742E-1,-9.355726242E-1,1.868913323E-1
1.714919286E0,-4.524798691E-1,-1.250890613E0,1.235081553E-1
1.720033296E0,-3.715198040E-1,-1.516673803E0,5.266812816E-2
1.725072723E0,-2.921576798E-1,-1.701497078E0,-1.444347575E-2
1.730112203E0,-2.245134413E-1,-1.797903419E0,-7.356559485E-2
1.735151682E0,-1.701849997E-1,-1.820273995E0,-1.326877326E-1
1.740191109E0,-1.227807924E-1,-1.781924486E0,-1.934077442E-1
1.745230588E0,-8.123550564E-2,-1.705758095E0,-2.551930547E-1
1.750349338E0,-3.755969182E-2,-1.608819127E0,-3.148477972E-1
1.755388765E0,1.250769105E-2,-1.501227617E0,-3.782309592E-1
1.760428244E0,7.535822690E-2,-1.385113835E0,-4.400162399E-1
1.765467723E0,1.520572156E-1,-1.266336918E0,-5.018015504E-1
1.770507150E0,2.394088209E-1,-1.145962119E0,-5.603910089E-1
1.775546630E0,3.342172503E-1,-1.022924185E0,-6.173825860E-1
1.780724703E0,4.221014977E-1,-8.982884884E-1,-6.647868752E-1
1.785764130E0,5.009310246E-1,-7.699242234E-1,-6.956794858E-1
1.790803609E0,5.659121275E-1,-6.319725513E-1,-7.217784524E-1
1.795843036E0,6.143816113E-1,-4.865640998E-1,-7.372247577E-1
1.800882515E0,6.447415948E-1,-3.363619447E-1,-7.452142239E-1
1.805921994E0,6.596552730E-1,-1.909534782E-1,-7.414858341E-1
1.811065171E0,6.521984339E-1,-6.525238603E-2,-7.260394692E-1
1.816104598E0,6.298279762E-1,3.008870035E-2,-6.967447400E-1
1.821144078E0,6.010658145E-1,9.720029682E-2,-6.498731375E-1
1.826183505E0,5.584552884E-1,1.280929595E-1,-5.955446959E-1
1.831222984E0,5.174426436E-1,1.126466170E-1,-5.417488813E-1
1.836262463E0,4.876151979E-1,4.660028219E-2,-4.991383553E-1
1.841408348E0,4.758973122E-1,-6.205659360E-2,-4.661152065E-1
1.846447775E0,4.774951935E-1,-2.122587413E-1,-4.357551932E-1
1.851487255E0,4.897457361E-1,-3.890924752E-1,-4.037972987E-1
1.856526682E0,5.099858046E-1,-5.744483471E-1,-3.563930392E-1
1.861566161E0,5.238341689E-1,-7.464883924E-1,-3.004667163E-1
1.866605640E0,5.280953050E-1,-8.887010813E-1,-2.472035587E-1
1.871757203E0,5.142468810E-1,-9.930968881E-1,-2.013972253E-1
1.876796630E0,4.865499139E-1,-1.046892643E0,-1.705045849E-1
1.881836109E0,4.348846674E-1,-1.032511592E0,-1.454708874E-1
1.886875536E0,3.757625520E-1,-9.584758282E-1,-1.225677133E-1
1.891915015E0,3.091835678E-1,-8.381010294E-1,-9.380560368E-2
1.896954494E0,2.426046133E-1,-6.894967556E-1,-5.119506642E-2
1.902106838E0,1.733624935E-1,-5.227830410E-1,1.272074319E-2
1.907146265E0,9.240245074E-2,-3.699177504E-1,9.474603832E-2
1.912185744E0,7.714006118E-3,-2.671198249E-1,1.836955398E-1
1.917225171E0,-7.218076289E-2,-2.527387440E-1,2.614597678E-1
1.922264650E0,-1.542060375E-1,-3.571345806E-1,2.955482006E-1
1.927304130E0,-2.820376754E-1,-5.494146347E-1,2.678513527E-1
1.932456838E0,-5.014818907E-1,-7.438251972E-1,2.044681758E-1
1.937496265E0,-8.295830488E-1,-8.652652502E-1,1.096597239E-1
1.942535744E0,-1.206153631E0,-9.265179038E-1,-3.734663874E-2
1.947575171E0,-1.480991721E0,-9.760527015E-1,-2.344203889E-1
1.952614650E0,-1.507623315E0,-1.020261049E0,-4.527994394E-1
1.957654130E0,-1.250362158E0,-8.988210559E-1,-6.520037055E-1
1.962806786E0,-7.672651410E-1,-3.864293396E-1,-8.629258871E-1
1.967846213E0,-1.781744659E-1,5.296972990E-1,-1.131904840E0
1.972885692E0,4.263625443E-1,1.614135623E0,-1.464799643E0
1.977925119E0,9.627227783E-1,2.587253809E0,-1.802488327E0
1.982964598E0,1.344619751E0,3.200312853E0,-2.065075874E0
1.988004078E0,1.512931466E0,3.322285652E0,-2.196103334E0
1.993154025E0,1.438362956E0,2.988858223E0,-2.185983181E0
1.998193400E0,1.129969120E0,2.286849499E0,-2.027258873E0
2.003232932E0,6.213058233E-1,1.303611279E0,-1.739637733E0
2.008272359E0,-2.158073895E-2,1.531266421E-1,-1.382774353E0
2.013311838E0,-6.538146138E-1,-9.616716504E-1,-1.015258431E0
2.018351265E0,-1.086844206E0,-1.787250757E0,-6.946142316E-1
2.023496890E0,-1.241840005E0,-2.203768730E0,-4.730394185E-1
2.028536317E0,-1.159814835E0,-2.252238512E0,-3.531972766E-1
2.033575796E0,-8.673999310E-1,-2.038120270E0,-2.887488306E-1
2.038615223E0,-3.896293044E-1,-1.679659247E0,-2.061908990E-1
2.043654703E0,1.770909131E-1,-1.276989579E0,-9.753402323E-2
2.048694130E0,6.687100530E-1,-9.696611166E-1,-3.258208279E-3
2.053843869E0,1.002137542E0,-8.418294787E-1,7.131023705E-2
2.058883296E0,1.217853427E0,-8.338400126E-1,1.634555310E-1
2.063922775E0,1.354739785E0,-8.519494534E-1,2.694492638E-1
2.068962203E0,1.436232448E0,-8.492863178E-1,3.727797866E-1
2.074001682E0,1.487897754E0,-7.960231304E-1,4.430871904E-1
2.079041109E0,1.568857670E0,-6.633978486E-1,4.665229917E-1
2.084193088E0,1.732375622E0,-4.540735781E-1,4.404240549E-1
2.089232515E0,1.965668321E0,-1.962797940E-1,3.818345368E-1
2.094271994E0,2.228255749E0,9.560240060E-2,2.907545269E-1
2.099311421E0,2.476994753E0,4.061267078E-1,1.831628978E-1
2.104350900E0,2.673003197E0,7.246404886E-1,7.184287161E-2
2.109390328E0,2.793377876E0,1.023979545E0,-3.521611169E-2
2.114545275E0,2.831727266E0,1.279642820E0,-1.337529868E-1
2.119584703E0,2.786453724E0,1.452748179E0,-2.131151259E-1
2.124624182E0,2.653295755E0,1.515066147E0,-2.690414488E-1
2.129663609E0,2.443971395E0,1.463933468E0,-3.089888394E-1
2.134703088E0,2.186177731E0,1.302013397E0,-3.340225518E-1
2.139742567E0,1.893763065E0,1.040491223E0,-3.441425264E-1
2.144911473E0,1.585901856E0,7.059984207E-1,-3.329572678E-1
2.149950900E0,1.274312377E0,3.358193040E-1,-2.994014621E-1
2.154990380E0,9.723101258E-1,-2.104394697E-2,-2.450730354E-1
2.160029859E0,6.969395280E-1,-3.044040501E-1,-1.715698391E-1
2.165069286E0,4.434067607E-1,-4.721830189E-1,-8.368559927E-2
2.170108765E0,2.106467187E-1,-4.950861931E-1,2.600741107E-3
2.175225328E0,1.570348255E-2,-3.821682632E-1,8.196288347E-2
2.180264755E0,-1.366291940E-1,-1.627239883E-1,1.538681686E-1
2.185304234E0,-2.612650394E-1,1.339519024E-1,2.156534344E-1
2.190343713E0,-3.640629649E-1,4.774993658E-1,2.705145180E-1
2.195383140E0,-4.530124962E-1,8.178510666E-1,3.189840019E-1
2.200422619E0,-5.281134844E-1,1.116657615E0,3.605292737E-1
2.205582515E0,-5.936272144E-1,1.368592381E0,3.914219141E-1
2.210621942E0,-6.495535374E-1,1.572057724E0,4.010092914E-1
2.215661369E0,-6.804462075E-1,1.723857760E0,3.887587786E-1
2.220700900E0,-6.815114617E-1,1.841036677E0,3.669208586E-1
2.225740328E0,-6.554124951E-1,1.940106153E0,3.360282183E-1
2.230779807E0,-6.042798162E-1,2.017337799E0,3.035376668E-1
2.235953765E0,-5.243850350E-1,2.089775801E0,2.699818909E-1
2.240993244E0,-4.492840469E-1,2.188312531E0,2.470787168E-1
2.246032671E0,-3.954882622E-1,2.326797009E0,2.550681829E-1
2.251072150E0,-3.757808805E-1,2.470607519E0,2.939502895E-1
2.256111578E0,-3.859008849E-1,2.580329657E0,3.557355702E-1
2.261151057E0,-4.178587794E-1,2.652767420E0,4.276408851E-1
2.266273140E0,-4.620672166E-1,2.677268744E0,4.963503778E-1
2.271312619E0,-5.078735352E-1,2.666083336E0,5.618640780E-1
2.276352046E0,-5.584734678E-1,2.631994963E0,6.316388845E-1
2.281391525E0,-6.042798162E-1,2.566481113E0,7.088704109E-1
2.286431005E0,-6.506187916E-1,2.458357096E0,7.876999378E-1
2.291470484E0,-7.028166652E-1,2.307089567E0,8.606705070E-1
2.296593869E0,-7.630041242E-1,2.116407394E0,9.272494912E-1
2.301633348E0,-8.343767524E-1,1.865005136E0,9.767841697E-1
2.306672775E0,-9.116083980E-1,1.566198707E0,9.986221194E-1
2.311712255E0,-1.003753662E0,1.265261769E0,9.954263568E-1
2.316751682E0,-1.112943172E0,9.882932305E-1,9.751862884E-1
2.321791161E0,-1.232785225E0,7.390215993E-1,9.363042116E-1
2.326963140E0,-1.352627397E0,5.360888243E-1,8.851715922E-1
2.332002619E0,-1.455958009E0,3.917456865E-1,8.297778368E-1
2.337042046E0,-1.537983298E0,2.996003926E-1,7.759820819E-1
2.342081525E0,-1.594974995E0,2.458045483E-1,7.173925042E-1
2.347120953E0,-1.634922385E0,2.282277197E-1,6.646620035E-1
2.352160432E0,-1.659423351E0,2.330214083E-1,6.257799268E-1
2.357320119E0,-1.664749622E0,2.596530020E-1,6.076704264E-1
2.362359546E0,-1.649835944E0,2.990677357E-1,6.113988161E-1
2.367399025E0,-1.612019181E0,3.241014183E-1,6.353672743E-1
2.372438505E0,-1.547570705E0,3.166445792E-1,6.689230204E-1
2.377477932E0,-1.449033737E0,2.825561762E-1,7.040767074E-1
2.382517411E0,-1.319071651E0,2.431414127E-1,7.189904451E-1
2.387696682E0,-1.165141106E0,2.426087856E-1,6.976851821E-1
2.392750953E0,-9.925683737E-1,3.059919477E-1,6.390956640E-1
2.397805223E0,-8.056146502E-1,4.055941105E-1,5.634619594E-1
2.402859598E0,-6.026819348E-1,5.014678240E-1,4.931545854E-1
2.407913921E0,-4.008145630E-1,5.605899692E-1,4.382934868E-1
2.412968244E0,-2.058713287E-1,5.909499526E-1,3.994113803E-1
2.418031994E0,-2.158073895E-2,6.127878428E-1,3.924871981E-1
2.423086317E0,1.344803572E-1,6.420825720E-1,4.207166433E-1
2.428140640E0,2.564530075E-1,6.585941315E-1,4.798387885E-1
2.433195015E0,3.454025388E-1,6.580615640E-1,5.346998572E-1
2.438249286E0,4.221014977E-1,6.783015728E-1,5.352324843E-1
2.443303661E0,4.924088717E-1,7.976110578E-1,4.611966610E-1
2.448396369E0,5.217037201E-1,1.026642799E0,3.067334592E-1
2.453450744E0,4.854846895E-1,1.303078771E0,6.811445206E-2
2.458505015E0,4.023941457E-1,1.555546165E0,-2.477361858E-1
2.463559390E0,3.198361993E-1,1.743032455E0,-5.998057723E-1
2.468613713E0,2.910740972E-1,1.845830441E0,-8.980795741E-1
2.473668036E0,3.352825344E-1,1.854885101E0,-1.062662721E0
2.478708505E0,4.412762523E-1,1.776588202E0,-1.106338501E0
2.483762880E0,5.664448142E-1,1.621059775E0,-1.098348975E0
2.488817203E0,7.059943080E-1,1.418659806E0,-1.069054365E0
2.493871525E0,8.530006409E-1,1.181638598E0,-1.024845839E0
2.498925796E0,9.968112707E-1,9.185184836E-1,-9.582669735E-1
2.503980171E0,1.129436493E0,6.543331146E-1,-8.629258871E-1
2.509070900E0,1.245550156E0,4.045288265E-1,-7.388226986E-1
2.514125275E0,1.332369208E0,1.866824478E-1,-5.918162465E-1
2.519179546E0,1.388295531E0,1.730553806E-2,-4.224393964E-1
2.524233921E0,1.425047159E0,-9.241660684E-2,-2.445403934E-1
2.529288244E0,1.453276634E0,-1.302334517E-1,-8.155506849E-2
2.534342567E0,1.493224025E0,-7.483976334E-2,4.574391246E-2
2.539420328E0,1.559270382E0,7.536239177E-2,1.149860471E-1
2.544474650E0,1.657807231E0,3.043940663E-1,1.123228893E-1
2.549528973E0,1.798421979E0,5.941457152E-1,4.521128163E-2
2.554583296E0,1.967798829E0,9.307690263E-1,-7.622875273E-2
2.559637619E0,2.144632339E0,1.287099719E0,-2.184414417E-1
2.564691942E0,2.297497749E0,1.630114555E0,-3.553278148E-1
2.569736838E0,2.394436836E0,1.947563052E0,-4.783657491E-1
2.574791161E0,2.418405056E0,2.201095819E0,-5.769026279E-1
2.579845484E0,2.365674496E0,2.347569466E0,-6.605257988E-1
2.584899807E0,2.248495579E0,2.352363110E0,-7.324310541E-1
2.589954130E0,2.086043119E0,2.211215734E0,-7.846289873E-1
2.595008505E0,1.919329405E0,1.935845137E0,-8.117932081E-1
2.600098140E0,1.773388386E0,1.582710266E0,-8.133910894E-1
2.605152411E0,1.677514553E0,1.194954395E0,-8.107279539E-1
2.610206786E0,1.624251366E0,8.066658378E-1,-8.069995642E-1
2.615261057E0,1.586434603E0,4.460740983E-1,-8.112605810E-1
2.620315432E0,1.546487212E0,1.153097749E-1,-8.208479285E-1
2.625369755E0,1.487365007E0,-1.861597896E-1,-8.267068863E-1
2.630430171E0,1.403741837E0,-4.295724928E-1,-8.288374543E-1
2.635484546E0,1.296682835E0,-5.648609996E-1,-8.251090050E-1
2.640538869E0,1.180036545E0,-5.819051862E-1,-8.027384281E-1
2.645593192E0,1.068716407E0,-4.684545994E-1,-7.601279020E-1
2.650647463E0,9.808322191E-1,-2.127913684E-1,-6.967447400E-1
2.655701838E0,9.270364642E-1,1.499308497E-1,-6.413510442E-1
2.660799130E0,9.126554132E-1,5.824278593E-1,-6.040668488E-1
2.665853400E0,9.265038371E-1,1.020251155E0,-5.934141874E-1
2.670907775E0,9.669838548E-1,1.397354484E0,-5.944795012E-1
2.675962098E0,1.001604915E0,1.712672472E0,-6.003383994E-1
2.681016421E0,1.003202796E0,1.968868375E0,-5.934141874E-1
2.686070744E0,1.005333304E0,2.118005276E0,-5.683804750E-1
2.691128557E0,1.011724830E0,2.115874529E0,-5.412163138E-1
2.696182932E0,1.015453339E0,1.984314680E0,-5.097910166E-1
2.701237255E0,1.013322830E0,1.738238692E0,-4.751699269E-1
2.706291578E0,9.994744062E-1,1.378179789E0,-4.437446892E-1
2.711345900E0,9.547333121E-1,1.007468104E0,-4.064604342E-1
2.716400223E0,8.551312089E-1,7.347605228E-1,-3.462730646E-1
2.721472203E0,7.155816555E-1,5.222404599E-1,-2.791614532E-1
2.726526578E0,5.440742373E-1,3.635161817E-1,-2.195066959E-1
2.731580900E0,3.443372548E-1,2.639140487E-1,-1.731677353E-1
2.736635171E0,1.477961540E-1,1.957371831E-1,-1.305572093E-1
2.741689546E0,-7.732315920E-3,1.062550396E-1,-8.688138425E-2
2.746743869E0,-9.774708748E-2,-1.571762934E-2,-4.746664315E-2
2.751831005E0,-1.307702512E-1,-1.424839795E-1,-1.497610845E-2
2.756885328E0,-1.510102600E-1,-2.500755787E-1,8.992321789E-3
2.761939650E0,-2.042734325E-1,-3.305030167E-1,2.177548409E-2
2.766993973E0,-3.273113668E-1,-4.210503995E-1,2.071022056E-2
2.772048296E0,-5.622019172E-1,-5.126630664E-1,-3.790840041E-3
2.777102619E0,-9.334462881E-1,-6.847030520E-1,-5.598875135E-2
2.782174182E0,-1.387781143E0,-1.096959949E0,-1.481340528E-1
2.787228505E0,-1.880465508E0,-1.803229809E0,-2.706393600E-1
2.792282828E0,-2.386998415E0,-2.580339432E0,-3.963404298E-1
2.797337098E0,-2.766232491E0,-2.851449013E0,-5.002036095E-1
2.802391473E0,-2.829615355E0,-2.148907900E0,-5.513362885E-1
2.807445796E0,-2.489796638E0,-7.598041892E-1,-5.172478557E-1
2.812521786E0,-1.861290693E0,4.657814801E-1,-4.091235995E-1
2.817576109E0,-1.240774751E0,9.675205946E-1,-3.180435598E-1
2.822630380E0,-9.211956859E-1,7.997416258E-1,-3.462730646E-1
2.827684755E0,-1.029852629E0,4.189099073E-1,-4.661152065E-1
2.832739078E0,-1.493242264E0,2.010634989E-1,-5.502710342E-1
2.837793453E0,-2.072213173E0,1.153097749E-1,-5.193784237E-1
2.842872203E0,-2.483405113E0,6.652902812E-3,-3.425446451E-1
2.847926525E0,-2.585137606E0,-1.142545119E-1,-7.942454517E-2
2.852980848E0,-2.404575348E0,-1.510060877E-1,1.559986919E-1
2.858035171E0,-2.048777342E0,-1.217113510E-1,3.008745313E-1
2.863089494E0,-1.666347504E0,-7.377449423E-2,3.594639897E-1
2.868143817E0,-1.313745379E0,-1.869204454E-3,3.701166511E-1
2.873214494E0,-9.648715258E-1,1.163750365E-1,3.445503414E-1
2.878268817E0,-6.452924609E-1,2.165098190E-1,2.726450264E-1
2.883323192E0,-4.072061479E-1,2.639140487E-1,1.607923657E-1
2.888377515E0,-2.740482092E-1,3.272972107E-1,5.479865521E-2
2.893431838E0,-2.229155451E-1,4.045288265E-1,-3.095505945E-2
2.898486161E0,-2.175892144E-1,4.348888397E-1,-9.806665033E-2
2.903563192E0,-2.436881810E-1,4.439435899E-1,-1.220350787E-1
2.908617515E0,-2.825703025E-1,4.348888397E-1,-1.087192968E-1
2.913671838E0,-2.905597985E-1,3.256993294E-1,-1.017950773E-1
2.918726161E0,-2.319702804E-1,6.470976025E-2,-1.065887585E-1
2.923780484E0,-1.281070858E-1,-2.639240324E-1,-1.273614019E-1
2.928834807E0,1.322424738E-3,-5.131956935E-1,-1.635803729E-1
2.933908713E0,1.616445929E-1,-6.596693993E-1,-2.115172297E-1
2.938962984E0,3.512614667E-1,-7.321073413E-1,-2.573235631E-1
2.944017359E0,5.296931267E-1,-7.608694434E-1,-2.791614532E-1
2.949071682E0,6.724385023E-1,-7.550105453E-1,-2.695740759E-1
2.954126005E0,8.008027673E-1,-7.225199938E-1,-2.376161814E-1
2.959180328E0,9.286343455E-1,-6.889641881E-1,-2.008645982E-1
2.964258088E0,1.055400610E0,-6.692568064E-1,-1.705045849E-1
2.969312359E0,1.165122867E0,-6.570062637E-1,-1.609172076E-1
2.974366682E0,1.237028122E0,-6.447557807E-1,-1.678414196E-1
2.979421057E0,1.279106140E0,-6.127977967E-1,-1.811572164E-1
2.984475380E0,1.301476598E0,-5.552735925E-1,-1.918098480E-1
2.989529703E0,1.308933377E0,-5.046736002E-1,-1.966035366E-1
2.994628244E0,1.310531259E0,-5.259788632E-1,-2.141803950E-1
2.999682619E0,1.298813343E0,-6.138631105E-1,-2.413446009E-1
3.004736890E0,1.231169224E0,-5.978841186E-1,-2.301593274E-1
3.009791265E0,1.147546053E0,-5.350335836E-1,-1.859509051E-1
3.014845588E0,1.074575424E0,-5.190546513E-1,-1.310898364E-1
3.019899963E0,1.019181728E0,-5.206525326E-1,-7.516349107E-2
3.024942984E0,9.802996516E-1,-5.062714815E-1,-2.136768959E-2
3.029997307E0,9.515374899E-1,-4.823030531E-1,2.763443254E-2
3.035051630E0,9.270364642E-1,-4.455514252E-1,7.503866404E-2
3.040105953E0,8.988069892E-1,-3.944188058E-1,1.149860471E-1
3.045160275E0,8.705774546E-1,-3.278398216E-1,1.581292152E-1
3.050214598E0,8.498048186E-1,-2.479450703E-1,2.028702796E-1
3.055284494E0,8.311627507E-1,-1.552671492E-1,2.486765981E-1
3.060338869E0,8.237059116E-1,-5.406711996E-2,3.008745313E-1
3.065393140E0,8.167816997E-1,4.819817841E-2,3.520071507E-1
3.070447515E0,8.087922335E-1,1.467350572E-1,3.919545412E-1
3.075501838E0,7.954764366E-1,2.356845737E-1,4.180535078E-1
3.080556213E0,7.741711736E-1,3.113182783E-1,4.329672158E-1
3.085662567E0,7.518006563E-1,3.731035590E-1,4.350977242E-1
3.090716942E0,7.230384946E-1,4.130509496E-1,4.223145545E-1
3.095771213E0,6.921458244E-1,4.402151704E-1,3.994113803E-1
3.100825588E0,6.591227055E-1,4.572593868E-1,3.679861426E-1
3.105879911E0,6.266321540E-1,4.604551494E-1,3.275061250E-1
3.110934234E0,5.984026790E-1,4.561941028E-1,2.848955691E-1
3.115988036E0,5.723037124E-1,4.466067255E-1,2.390892357E-1
3.121042411E0,5.462047458E-1,4.354214668E-1,1.959460527E-1
3.126096682E0,5.248994827E-1,4.268993735E-1,1.533355266E-1
3.131151057E0,5.030615926E-1,4.279645979E-1,1.192471012E-1
3.136205380E0,4.817562699E-1,4.492699206E-1,9.687656909E-2
3.141259703E0,4.625815153E-1,4.844236076E-1,7.344076782E-2
3.146318765E0,4.391457140E-1,4.966741204E-1,4.627654329E-2
3.151373140E0,4.066551924E-1,4.844236076E-1,1.005758531E-2
3.156427463E0,3.544572890E-1,4.854888320E-1,-2.616137452E-2
3.161481786E0,2.713666856E-1,4.881520271E-1,-4.799927399E-2
3.166536109E0,1.701666862E-1,4.663141072E-1,-6.610874832E-2
3.171590432E0,5.884665623E-2,4.103877544E-1,-7.942454517E-2
3.176665380E0,-5.993022025E-2,3.187751174E-1,-9.167507291E-2
3.181719703E0,-1.813702732E-1,1.994656026E-1,-1.108498201E-1
3.186774078E0,-3.028103411E-1,6.524239480E-2,-1.268287897E-1
3.191828400E0,-4.167935252E-1,-7.377449423E-2,-1.422750950E-1
3.196882671E0,-5.185260773E-1,-2.117261142E-1,-1.619824618E-1
3.201937046E0,-6.122693419E-1,-3.406229913E-1,-1.864835322E-1
3.207042255E0,-6.969577074E-1,-4.684545994E-1,-2.131151259E-1
3.212096578E0,-7.752546072E-1,-5.936230421E-1,-2.376161814E-1
3.217150900E0,-8.540841341E-1,-7.155957818E-1,-2.626498938E-1
3.222205275E0,-9.259893894E-1,-8.215894699E-1,-2.892814577E-1
3.227259546E0,-1.000557780E0,-9.100063443E-1,-3.116520047E-1
3.232313921E0,-1.067669392E0,-9.723242521E-1,-3.270983100E-1
3.237379703E0,-1.132650495E0,-1.012804270E0,-3.313593566E-1
3.242434078E0,-1.191240072E0,-1.043164253E0,-3.292288482E-1
3.247488400E0,-1.237578988E0,-1.070861101E0,-3.249678016E-1
3.252542723E0,-1.278591633E0,-1.095894814E0,-3.185762167E-1
3.257597046E0,-1.319604397E0,-1.115069509E0,-3.201741278E-1
3.262651369E0,-1.350496888E0,-1.133178949E0,-3.223046362E-1
3.267725380E0,-1.378726363E0,-1.150755882E0,-3.255003989E-1
3.272779755E0,-1.414945364E0,-1.152886391E0,-3.228372633E-1
3.277834025E0,-1.455958009E0,-1.135309458E0,-3.132498860E-1
3.282888400E0,-1.504427433E0,-1.090568542E0,-2.892814577E-1
3.287942723E0,-1.558755994E0,-1.013336897E0,-2.685088217E-1
3.292997046E0,-1.614149570E0,-9.275832176E-1,-2.583888173E-1
3.298109025E0,-1.667412758E0,-8.365031481E-1,-2.637151480E-1
3.303163348E0,-1.711088538E0,-7.278462648E-1,-2.914119959E-1
3.308217671E0,-1.739318132E0,-6.005473137E-1,-3.356204331E-1
3.313271994E0,-1.749970794E0,-4.673893750E-1,-3.830246329E-1
3.318326317E0,-1.763819218E0,-3.752440810E-1,-4.213741422E-1
3.323380692E0,-1.794711709E0,-3.512756228E-1,-4.261678457E-1
3.328434963E0,-1.849572897E0,-3.715156317E-1,-3.681109548E-1
3.333474859E0,-1.924141288E0,-4.285072386E-1,-2.525298893E-1
3.338529182E0,-2.009362698E0,-5.297073126E-1,-9.487086535E-2
3.343583557E0,-2.086594105E0,-6.681915522E-1,9.740920365E-2
3.348637828E0,-2.143053293E0,-8.077410460E-1,3.179187477E-1
3.353692203E0,-2.167021751E0,-9.153326750E-1,5.528093576E-1
3.358746473E0,-2.141988039E0,-9.883032441E-1,7.706556916E-1
3.363835275E0,-2.061560631E0,-1.037305355E0,9.458915591E-1
3.368889598E0,-1.931065559E0,-1.078317881E0,1.072125435E0
3.373943973E0,-1.770743370E0,-1.123059034E0,1.156813860E0
3.378998296E0,-1.612551689E0,-1.166734815E0,1.209544301E0
3.384052619E0,-1.481524348E0,-1.180050611E0,1.250024438E0
3.389106942E0,-1.377661109E0,-1.168332696E0,1.281449556E0
3.394172515E0,-1.276461124E0,-1.168332696E0,1.291569591E0
3.399229546E0,-1.172597885E0,-1.194431663E0,1.280384421E0
3.404286525E0,-1.054353595E0,-1.243966460E0,1.245230675E0
3.409343505E0,-9.302504659E-1,-1.311078072E0,1.185575962E0
3.414400536E0,-8.066799045E-1,-1.383515835E0,1.098224401E0
3.419457567E0,-6.815114617E-1,-1.439974904E0,9.895673990E-1
3.424518244E0,-5.669956207E-1,-1.472465515E0,8.835737109E-1
3.429575223E0,-4.604693353E-1,-1.462345362E0,7.866346836E-1
3.434632255E0,-3.693892956E-1,-1.396831632E0,7.216535807E-1
3.439689286E0,-2.942882180E-1,-1.320665479E0,6.801083684E-1
3.444746265E0,-2.271765918E-1,-1.275391579E0,6.428241134E-1
3.449803296E0,-1.755113155E-1,-1.238640070E0,6.156598926E-1
3.454867203E0,-1.265092045E-1,-1.206149578E0,6.082029939E-1
3.459924182E0,-7.324602455E-2,-1.185909510E0,6.145946383E-1
3.464981213E0,-1.518915873E-2,-1.184844255E0,6.257799268E-1
3.470038244E0,5.032454431E-2,-1.192301154E0,6.369651556E-1
3.475095223E0,1.206319332E-1,-1.194964290E0,6.556072235E-1
3.480152255E0,1.930698603E-1,-1.186442137E0,6.747819781E-1
3.485213453E0,2.660404146E-1,-1.170995831E0,6.939567327E-1
3.490270484E0,3.379456699E-1,-1.143298984E0,7.099356651E-1
3.495327463E0,4.061225653E-1,-1.103351593E0,7.179251909E-1
3.500384494E0,4.748320282E-1,-1.051153660E0,7.147293687E-1
3.505441525E0,5.387479067E-1,-9.872379303E-1,7.078052163E-1
3.510498505E0,5.968047976E-1,-9.094737172E-1,6.966198683E-1
3.515561161E0,6.420784593E-1,-8.290463686E-1,6.811736226E-1
3.520618088E0,6.740363836E-1,-7.438251972E-1,6.625314951E-1
3.525675171E0,6.969395280E-1,-6.506146789E-1,6.428241134E-1
3.530732098E0,7.209079862E-1,-5.717851520E-1,6.252472401E-1
3.535789130E0,7.432785034E-1,-5.073367357E-1,6.076704264E-1
3.540846161E0,7.635185122E-1,-4.625956714E-1,5.927567482E-1
3.545905796E0,7.885522246E-1,-4.391598701E-1,5.815714598E-1
3.550962775E0,8.151838183E-1,-4.333009124E-1,5.746472478E-1
3.556019859E0,8.380869627E-1,-4.439535737E-1,5.661251545E-1
3.561076838E0,8.540658951E-1,-4.578019977E-1,5.565377474E-1
3.566133817E0,8.561964631E-1,-4.551388025E-1,5.421566963E-1
3.571190848E0,8.460764289E-1,-4.269093573E-1,5.267103910E-1
3.576254234E0,8.338258862E-1,-3.736461699E-1,5.075356364E-1
3.581311265E0,8.151838183E-1,-3.081324697E-1,4.867630005E-1
3.586368296E0,7.901501060E-1,-2.388903350E-1,4.686535299E-1
3.591425223E0,7.736385465E-1,-1.739092618E-1,4.452177286E-1
3.596482255E0,7.667143345E-1,-1.163850352E-1,4.271082580E-1
3.601539286E0,7.661816478E-1,-6.898080558E-2,4.132598042E-1
3.606602515E0,7.656490207E-1,-3.542500734E-2,3.988787532E-1
3.611659494E0,7.725732923E-1,-1.411973499E-2,3.924871981E-1
3.616716525E0,7.784321904E-1,-3.999731503E-3,3.962156177E-1
3.621773505E0,7.800301313E-1,-1.336573157E-3,4.015419185E-1
3.626830588E0,7.741711736E-1,-1.336573157E-3,3.962156177E-1
3.631887567E0,7.619206309E-1,-9.858680889E-3,3.828998208E-1
3.636949911E0,7.533985376E-1,-2.051131614E-2,3.674535155E-1
3.642006890E0,7.411479950E-1,-2.210921235E-2,3.504092991E-1
3.647063921E0,7.310279608E-1,-1.678289287E-2,3.312345445E-1
3.652120900E0,7.251690626E-1,-1.869204454E-3,3.083313704E-1
3.657177932E0,7.288974524E-1,2.582764626E-2,2.779713571E-1
3.662234963E0,7.406153083E-1,6.897081435E-2,2.502745092E-1
3.667293661E0,7.581921816E-1,1.222339794E-1,2.231102884E-1
3.672350692E0,7.848237753E-1,1.813561171E-1,1.911523789E-1
3.677407671E0,8.103901148E-1,2.426087856E-1,1.634555310E-1
3.682464703E0,8.306301236E-1,2.958719730E-1,1.272365749E-1
3.687521734E0,8.359564543E-1,3.315582573E-1,9.101761132E-2
3.692578713E0,8.109227419E-1,3.480698764E-1,5.799444392E-2
3.697648088E0,7.523332238E-1,3.454066813E-1,3.668917343E-2
3.702705067E0,6.585900784E-1,3.241014183E-1,2.390600927E-2
3.707762098E0,5.344868302E-1,2.884151042E-1,1.751442999E-2
3.712819078E0,4.050572813E-1,2.495329827E-1,9.524953552E-3
3.717876109E0,2.820193470E-1,2.106508762E-1,7.394426968E-3
3.722933088E0,1.802866906E-1,1.786929667E-1,1.002845820E-3
3.728020484E0,9.346771240E-2,1.488655806E-1,-5.388735328E-3
3.733077463E0,1.517085079E-2,1.105160862E-1,-1.763926633E-2
3.738134494E0,-6.738708168E-2,6.098133326E-2,-3.628137708E-2
3.743191525E0,-1.696523577E-1,-2.934467979E-3,-5.652138218E-2
3.748248505E0,-2.825703025E-1,-8.069870621E-2,-7.622875273E-2
3.753305536E0,-3.933577240E-1,-1.653871536E-1,-8.688138425E-2
3.758320953E0,-4.801766872E-1,-2.468798161E-1,-9.007718414E-2
3.763377984E0,-5.307766199E-1,-3.033387661E-1,-9.167507291E-2
3.768434963E0,-5.611366630E-1,-3.230461478E-1,-9.646876156E-2
3.773491994E0,-5.936272144E-1,-3.097303510E-1,-8.421823382E-2
3.778549025E0,-6.436946392E-1,-2.884250879E-1,-3.468348086E-2
3.783606005E0,-7.118714452E-1,-2.777724564E-1,4.680917785E-2
3.788697775E0,-7.997556925E-1,-2.218461186E-1,1.442807913E-1
3.793754807E0,-8.913683891E-1,-2.477237023E-2,2.310997546E-1
3.798811838E0,-9.616757631E-1,3.651140928E-1,2.801018953E-1
3.803868817E0,-9.819157720E-1,9.163879156E-1,2.795692682E-1
3.808925848E0,-9.345114827E-1,1.518261909E0,2.326976657E-1
3.813982828E0,-8.152019978E-1,2.018403053E0,1.373565644E-1
3.819034494E0,-6.234545708E-1,2.306556940E0,-2.725576516E-3
3.824091473E0,-3.736503422E-1,2.330525160E0,-1.752982587E-1
3.829148505E0,-1.041386724E-1,2.117472410E0,-3.745025396E-1
3.834205484E0,1.371435225E-1,1.728118777E0,-5.939468145E-1
3.839262515E0,3.113140762E-1,1.225314379E0,-8.251090050E-1
3.844319494E0,3.858825266E-1,6.884215474E-1,-1.047216415E0
3.849358505E0,3.688383102E-1,2.383477092E-1,-1.230441809E0
3.854415484E0,3.267604113E-1,1.304448396E-2,-1.357208133E0
3.859472515E0,3.342172503E-1,8.974345028E-2,-1.422189236E0
3.864529546E0,4.455372989E-1,4.199751318E-1,-1.431243896E0
3.869586525E0,6.340889931E-1,8.530047536E-1,-1.390763879E0
3.874643505E0,8.434132934E-1,1.232238650E0,-1.280509114E0
3.879758140E0,1.016518593E0,1.493228197E0,-1.119121671E0
3.884815171E0,1.098011255E0,1.629049301E0,-9.412227273E-1
3.889872150E0,1.058063865E0,1.634908199E0,-7.761068344E-1
3.894929182E0,9.025354385E-1,1.520925045E0,-6.338942051E-1
3.899986161E0,6.697753072E-1,1.328644991E0,-4.911489189E-1
3.905043192E0,4.348846674E-1,1.099613428E0,-3.420120180E-1
3.910064494E0,2.511267066E-1,8.732448220E-1,-2.131151259E-1
3.915121525E0,1.573835313E-1,6.623226404E-1,-1.316224635E-1
3.920178505E0,1.557856351E-1,4.849562347E-1,-1.124477088E-1
3.925235536E0,2.266256511E-1,3.512656391E-1,-1.630477309E-1
3.930292515E0,3.432720006E-1,2.894803584E-1,-2.647804022E-1
3.935349546E0,4.817562699E-1,3.331561685E-1,-3.888835907E-1
3.940403453E0,6.117184758E-1,4.625856876E-1,-5.033994317E-1
3.945460484E0,7.166469693E-1,6.261036396E-1,-5.795657635E-1
3.950517463E0,7.949438095E-1,7.667184472E-1,-6.216436625E-1
3.955574494E0,8.354237676E-1,8.636574149E-1,-6.386879086E-1
3.960631473E0,8.380869627E-1,9.366279840E-1,-6.381552815E-1
3.965688505E0,8.093248606E-1,1.020251155E0,-6.291005015E-1
3.970750848E0,7.667143345E-1,1.109200716E0,-6.243067980E-1
3.975807880E0,7.235711217E-1,1.197084904E0,-6.184478402E-1
3.980864859E0,6.846889853E-1,1.278577566E0,-6.125889421E-1
3.985921890E0,6.623184681E-1,1.352080822E0,-6.040668488E-1
3.990978921E0,6.649816632E-1,1.412800789E0,-5.902184248E-1
3.996035900E0,6.958742738E-1,1.436236501E0,-5.705110431E-1
4.001117098E0,7.438111305E-1,1.430910230E0,-5.492057204E-1
4.006174182E0,7.901501060E-1,1.418127179E0,-5.231068134E-1
4.011231161E0,8.151838183E-1,1.401615620E0,-4.874204993E-1
4.016288140E0,8.093248606E-1,1.393093348E0,-4.378857315E-1
4.021345171E0,7.635185122E-1,1.380310297E0,-3.707741201E-1
4.026402203E0,6.974722147E-1,1.338765025E0,-2.988688350E-1
4.031463557E0,6.234363914E-1,1.259402871E0,-2.200393379E-1
4.036520588E0,5.600531697E-1,1.142756462E0,-1.449382603E-1
4.041577619E0,5.067899823E-1,9.930868745E-1,-8.581612259E-2
4.046634598E0,4.561899304E-1,8.242426515E-1,-5.172769725E-2
4.051691630E0,4.077204168E-1,6.506047249E-1,-3.415085003E-2
4.056748661E0,3.512614667E-1,4.641835690E-1,-2.669400536E-2
4.061807567E0,2.969330549E-1,2.729687989E-1,-2.616137452E-2
4.066864598E0,2.420719713E-1,9.187398106E-2,-1.923716068E-2
4.071921630E0,1.861456484E-1,-6.578501314E-2,-1.550873928E-2
4.076978609E0,1.360782683E-1,-1.824313700E-1,-2.083505504E-2
4.082035640E0,1.035877168E-1,-2.420861274E-1,-3.361821547E-2
4.087092619E0,6.949928403E-2,-2.511408627E-1,-4.586874694E-2
4.092157619E0,3.061717376E-2,-2.277050614E-1,-5.705401301E-2
4.097214650E0,-6.667051464E-3,-1.797682047E-1,-6.184769422E-2
4.102271682E0,-1.945021376E-2,-1.339618713E-1,-5.172769725E-2
4.107328713E0,-2.371126600E-2,-1.158524007E-1,-4.427085444E-2
4.112385692E0,-3.702706099E-2,-1.366250366E-1,-4.959717020E-2
4.117442671E0,-5.673443526E-2,-1.536692530E-1,-6.238032877E-2
4.122503400E0,-7.111550122E-2,-1.387555599E-1,-7.356559485E-2
4.127560432E0,-7.963760942E-2,-1.419513524E-1,-7.729401439E-2
4.132617463E0,-8.975761384E-2,-2.207808495E-1,-6.344559044E-2
4.137674442E0,-1.249113157E-1,-3.619282842E-1,-3.468348086E-2
4.142731473E0,-1.563365757E-1,-4.764440954E-1,4.731268156E-3
4.147788505E0,-1.371618360E-1,-4.753788412E-1,3.881970048E-2
4.152855640E0,-9.242077172E-2,-3.645914197E-1,6.225549802E-2
4.157912671E0,-6.472391635E-2,-1.957471669E-1,7.716919482E-2
4.162969703E0,-4.448390752E-2,-1.336573157E-3,8.196288347E-2
4.168026734E0,-1.252600085E-2,2.063898146E-1,8.409340680E-2
4.173083713E0,3.434559330E-2,3.928109407E-1,8.036497980E-2
4.178140692E0,7.482559979E-2,5.083920360E-1,6.917971373E-2
4.183202984E0,9.932666272E-2,5.478067398E-1,5.000497028E-2
4.188260015E0,1.003919244E-1,5.302299261E-1,3.136285394E-2
4.193317046E0,7.482559979E-2,4.759014845E-1,8.459690958E-3
4.198374078E0,2.262769639E-2,3.784298897E-1,-8.051894605E-3
4.203431057E0,-2.957021445E-2,2.745666802E-1,-1.391084306E-2
4.208488088E0,-6.632181257E-2,1.760298014E-1,-6.453999318E-3
4.213546473E0,-1.062691957E-1,6.684029102E-2,-2.192944754E-3
4.218603557E0,-1.483470947E-1,-2.530500293E-2,-4.856103566E-3
4.223660536E0,-1.888270974E-1,-1.110587195E-1,-1.660313108E-3
4.228717515E0,-2.090671211E-1,-1.962797940E-1,-1.127681346E-3
4.233774546E0,-2.117302716E-1,-2.767072022E-1,1.002845820E-3
4.238831525E0,-2.117302716E-1,-3.379598260E-1,-2.725576516E-3
4.243891682E0,-1.877618432E-1,-3.619282842E-1,-1.657400280E-2
4.248948765E0,-1.419555247E-1,-3.613956571E-1,-3.415085003E-2
4.254005744E0,-9.188813716E-2,-3.534061313E-1,-6.344559044E-2
4.259062723E0,-2.903758362E-2,-3.342314065E-1,-9.646876156E-2
4.264119755E0,3.754138574E-2,-3.299703598E-1,-1.353508979E-1
4.269176786E0,9.346771240E-2,-3.486124873E-1,-1.752982587E-1
4.274241838E0,1.451329887E-1,-3.885598481E-1,-1.987340748E-1
4.279298869E0,1.754930168E-1,-4.647261798E-1,-2.013972253E-1
4.284355900E0,1.648403704E-1,-5.526104569E-1,-1.896793246E-1
4.289412932E0,1.360782683E-1,-6.234504580E-1,-1.673087925E-1
4.294469911E0,1.227624565E-1,-6.697894335E-1,-1.337529868E-1
4.299526942E0,1.254256219E-1,-7.038778067E-1,-9.380560368E-2
4.304619182E0,1.248929799E-1,-7.550105453E-1,-5.545611680E-2
4.309676213E0,1.035877168E-1,-8.247852325E-1,-1.657400280E-2
4.314733192E0,6.790138781E-2,-8.785810471E-1,2.337337844E-2
4.319790171E0,3.967191279E-2,-9.062778950E-1,6.545129418E-2
4.324847203E0,1.943190582E-2,-9.163979292E-1,1.053986698E-1
4.329904234E0,1.322424738E-3,-9.084084630E-1,1.437481493E-1
4.334934286E0,-1.412389521E-2,-8.855052590E-1,1.847608089E-1
4.339991317E0,-3.755969182E-2,-8.524821401E-1,2.241755575E-1
4.345048348E0,-6.472391635E-2,-8.045452237E-1,2.587966025E-1
4.350105328E0,-8.336602896E-2,-7.582063079E-1,2.827650309E-1
4.355162307E0,-8.176813275E-2,-7.134652138E-1,2.960808277E-1
4.360219338E0,-5.673443526E-2,-6.671262383E-1,2.982113361E-1
4.365270953E0,-1.092810649E-2,-6.223852038E-1,2.907545269E-1
4.370327984E0,3.754138574E-2,-5.946883559E-1,2.737103105E-1
4.375384963E0,6.523822993E-2,-5.946883559E-1,2.460134625E-1
4.380441942E0,7.376033813E-2,-6.159936190E-1,2.012723833E-1
4.385498973E0,7.162981480E-2,-6.474189162E-1,1.512050033E-1
4.390556005E0,5.991191790E-2,-6.554083228E-1,1.091270968E-1
4.395638817E0,5.085717887E-2,-6.165262461E-1,8.196288347E-2
4.400696525E0,5.778139085E-2,-5.621978045E-1,6.811445206E-2
4.405754234E0,7.535822690E-2,-5.025430918E-1,5.639655143E-2
4.410811994E0,1.073161364E-1,-4.364967346E-1,4.361338541E-2
4.415869755E0,1.387414187E-1,-3.757766783E-1,2.816706523E-2
4.420927463E0,1.685688049E-1,-3.241114020E-1,8.459690958E-3
4.425981005E0,1.973309219E-1,-2.846966684E-1,-1.124768518E-2
4.431038713E0,2.244951278E-1,-2.548692822E-1,-3.202032298E-2
4.436096473E0,2.484635562E-1,-2.452819049E-1,-5.119506642E-2
4.441154182E0,2.687035501E-1,-2.564671636E-1,-6.983717531E-2
4.446211890E0,2.820193470E-1,-2.852292955E-1,-8.954454958E-2
4.451269598E0,2.905414402E-1,-3.107956052E-1,-1.071213931E-1
4.456323192E0,2.953351438E-1,-3.203829825E-1,-1.262961477E-1
4.461380953E0,3.022593260E-1,-3.182524443E-1,-1.465361565E-1
4.466438661E0,3.123793602E-1,-3.214482665E-1,-1.603845805E-1
4.471496369E0,3.129119873E-1,-3.502103686E-1,-1.582540423E-1
4.476554130E0,2.905414402E-1,-4.173219800E-1,-1.332203597E-1
4.481611838E0,2.335498631E-1,-5.179893374E-1,-9.114244580E-2
4.486687880E0,1.541877389E-1,-6.197220683E-1,-3.361821547E-2
4.491745588E0,6.736875325E-2,-6.980188489E-1,3.828706965E-2
4.496803348E0,-1.572179049E-2,-7.970883846E-1,1.155186743E-1
4.501861057E0,-8.283339441E-2,-9.424968958E-1,1.948807985E-1
4.506918765E0,-1.211828813E-1,-1.106014848E0,2.673186958E-1
4.511976525E0,-1.403576285E-1,-1.240770698E0,3.237777054E-1
4.517007255E0,-1.419555247E-1,-1.336111665E0,3.669208586E-1
4.522065015E0,-1.270418316E-1,-1.393103242E0,3.871608675E-1
4.527122723E0,-1.046713069E-1,-1.407484412E0,3.914219141E-1
4.532180484E0,-7.484392822E-2,-1.388309598E0,3.903566301E-1
4.537238192E0,-4.714706540E-2,-1.340372682E0,3.866282403E-1
4.542295953E0,-1.146073733E-2,-1.268467426E0,3.765082359E-1
4.547412984E0,2.529085428E-2,-1.186974764E0,3.568008542E-1
4.552470692E0,5.724876001E-2,-1.110808492E0,3.344303071E-1
4.557528400E0,8.281508088E-2,-1.057545304E0,3.141903281E-1
4.562586161E0,8.228244632E-2,-1.022924185E0,2.896892428E-1
4.567643869E0,5.192244425E-2,-9.888358116E-1,2.816997766E-1
4.572701578E0,1.730137877E-2,-9.638021588E-1,2.939502895E-1
4.577759338E0,-6.134419702E-3,-9.744548202E-1,3.147229552E-1
4.582747359E0,-2.938629361E-3,-1.030381083E0,3.349629641E-1
4.587805067E0,9.311900474E-3,-1.105482221E0,3.557355702E-1
4.592862775E0,2.156243287E-2,-1.152886391E0,3.749103248E-1
4.597920588E0,3.221506625E-2,-1.167267442E0,3.994113803E-1
4.602978296E0,4.020454362E-2,-1.172061086E0,4.313693047E-1
4.608035953E0,3.434559330E-2,-1.183779001E0,4.697187841E-1
4.613109650E0,2.475822344E-2,-1.192833781E0,5.054051280E-1
4.618167359E0,1.889927313E-2,-1.194431663E0,5.362977386E-1
4.623225067E0,3.114980459E-2,-1.194431663E0,5.576030612E-1
4.628282775E0,5.937928706E-2,-1.205616951E0,5.661251545E-1
4.633340536E0,9.932666272E-2,-1.224259019E0,5.671904087E-1
4.638398244E0,1.398066878E-1,-1.235444188E0,5.565377474E-1
4.643469182E0,1.776235402E-1,-1.245564222E0,5.421566963E-1
4.648526942E0,1.941351146E-1,-1.259945273E0,5.384283066E-1
4.653584650E0,1.882761717E-1,-1.287642241E0,5.448198318E-1
4.658642359E0,1.691014171E-1,-1.325459003E0,5.586683154E-1
4.663700119E0,1.483287960E-1,-1.373395920E0,5.794409513E-1
4.668757828E0,1.408719420E-1,-1.440507412E0,6.044746041E-1
4.673835223E0,1.408719420E-1,-1.512945414E0,6.311061978E-1
4.678892932E0,1.557856351E-1,-1.574198127E0,6.598683000E-1
4.683950640E0,1.946677566E-1,-1.601362348E0,6.955546141E-1
4.689008348E0,2.505940795E-1,-1.598699093E0,7.392304540E-1
4.694066109E0,3.113140762E-1,-1.572600245E0,7.914283872E-1
4.699123869E0,3.762951791E-1,-1.518804312E0,8.436263204E-1
4.704163244E0,4.370152056E-1,-1.426126480E0,8.888999820E-1
4.709220953E0,5.035942197E-1,-1.307349682E0,9.272494912E-1
4.714278713E0,5.770973563E-1,-1.195496798E0,9.613379240E-1
4.719336421E0,6.463395357E-1,-1.115602136E0,9.831758142E-1
4.724394182E0,7.081247568E-1,-1.078850627E0,9.986221194E-1
4.729451890E0,7.576595545E-1,-1.077785254E0,1.000752568E0
4.734504338E0,7.858890891E-1,-1.099623203E0,9.938284159E-1
4.739562098E0,7.912153602E-1,-1.126254797E0,9.725231528E-1
4.744619807E0,7.778995633E-1,-1.153419018E0,9.426957965E-1
4.749677567E0,7.533985376E-1,-1.160875916E0,9.032810330E-1
4.754735275E0,7.235711217E-1,-1.147560120E0,8.564094305E-1
4.759793036E0,6.825584769E-1,-1.126787424E0,7.967547178E-1
4.764850171E0,6.372847557E-1,-1.100155830E0,7.349693775E-1
4.769907880E0,5.898805857E-1,-1.070861101E0,6.753146648E-1
4.774965640E0,5.515310764E-1,-1.049023271E0,6.145946383E-1
4.780023348E0,5.142468810E-1,-1.030913711E0,5.623967648E-1
4.785081057E0,4.604509771E-1,-1.004282117E0,5.101988316E-1
4.790138817E0,3.853498995E-1,-9.430295229E-1,4.590661526E-1
4.795198244E0,2.729645967E-1,-8.594063520E-1,4.329672158E-1
4.800255953E0,1.344803572E-1,-7.779136300E-1,4.036724269E-1
4.805313713E0,2.387688262E-3,-6.815073490E-1,3.488113880E-1
4.810371421E0,-1.238460466E-1,-5.888293982E-1,2.875587344E-1
4.815429130E0,-2.554061115E-1,-5.084019899E-1,2.305671424E-1
4.820486890E0,-4.013471901E-1,-4.721830189E-1,1.709123701E-1
4.825550796E0,-5.558103323E-1,-4.705851376E-1,1.117902622E-1
4.830608505E0,-7.097409368E-1,-4.924230576E-1,7.397340238E-2
4.835666265E0,-8.673999310E-1,-5.158588290E-1,5.053760111E-2
4.840723973E0,-1.044233561E0,-5.749809742E-1,1.751442999E-2
4.845781682E0,-1.233317971E0,-6.687241197E-1,-3.361821547E-2
4.850839442E0,-1.431457043E0,-7.582063079E-1,-6.983717531E-2
4.855909390E0,-1.628530741E0,-8.327747583E-1,-7.942454517E-2
4.860967150E0,-1.830930710E0,-9.057453275E-1,-7.995717973E-2
4.866024859E0,-2.036526918E0,-9.723242521E-1,-6.664138287E-2
4.871082619E0,-2.225078583E0,-1.040501118E0,-7.463086396E-2
4.876140328E0,-2.391259670E0,-1.109743237E0,-1.422750950E-1
4.881198088E0,-2.536668062E0,-1.146494746E0,-2.477361858E-1
4.886217046E0,-2.660771132E0,-1.125722170E0,-3.718393743E-1
4.891274755E0,-2.771026134E0,-1.057545304E0,-5.023341775E-1
4.896332515E0,-2.882878542E0,-9.339747429E-1,-6.056647301E-1
4.901390223E0,-2.981948137E0,-7.683262825E-1,-6.738415956E-1
4.906447932E0,-3.038407087E0,-6.037430763E-1,-7.271047831E-1
4.911505692E0,-3.043200970E0,-4.775093496E-1,-7.894226313E-1
4.916571630E0,-2.988339901E0,-3.832335472E-1,-8.544037342E-1
4.921629338E0,-2.886074543E0,-3.155893087E-1,-9.012753963E-1
4.926687098E0,-2.755579710E0,-2.767072022E-1,-9.396248460E-1
4.931744807E0,-2.618160963E0,-2.713808715E-1,-9.763764739E-1
4.936802515E0,-2.492459774E0,-2.980124652E-1,-1.031237364E0
4.941860275E0,-2.401379585E0,-3.443514407E-1,-1.106871247E0
4.946913661E0,-2.352377415E0,-4.141261876E-1,-1.198483706E0
4.951971369E0,-2.344920635E0,-5.099998713E-1,-1.298618555E0
4.957029130E0,-2.361964703E0,-6.303746700E-1,-1.404079676E0
4.962086838E0,-2.392857313E0,-7.896315455E-1,-1.503681779E0
4.967144546E0,-2.407238483E0,-1.004282117E0,-1.592631340E0
4.972202307E0,-2.379009008E0,-1.316404343E0,-1.677319765E0
4.977276578E0,-2.309767008E0,-1.685518026E0,-1.743898630E0
4.982334286E0,-2.233600616E0,-2.004031897E0,-1.781183004E0
4.987391994E0,-2.168086767E0,-2.220813036E0,-1.812608242E0
4.992449755E0,-2.128139496E0,-2.342785835E0,-1.853088260E0
4.997507463E0,-2.118019581E0,-2.372080564E0,-1.922330260E0
5.002565223E0,-2.157967091E0,-2.276739359E0,-2.017671585E0
5.007627775E0,-2.245318651E0,-2.064751863E0,-2.121534586E0
5.012685536E0,-2.362497568E0,-1.769673944E0,-2.184917927E0
5.017743244E0,-2.462099552E0,-1.443170667E0,-2.181722164E0
5.022800953E0,-2.534537554E0,-1.128385305E0,-2.111947536E0
5.027858713E0,-2.585670233E0,-8.327747583E-1,-1.987844110E0
5.032916421E0,-2.615497589E0,-5.574041605E-1,-1.829119802E0
5.038016890E0,-2.635737419E0,-3.289051056E-1,-1.661340833E0
5.043074650E0,-2.637335300E0,-1.536692530E-1,-1.502616525E0
5.048132411E0,-2.609638691E0,-3.489237279E-2,-1.355610251E0
5.053190119E0,-2.538266182E0,1.996869780E-2,-1.227245927E0
5.058247828E0,-2.431739807E0,2.156659216E-2,-1.123382688E0
5.063305588E0,-2.292722702E0,7.718168199E-3,-1.039759517E0
5.068345171E0,-2.141988039E0,-9.858680889E-3,-9.721153378E-1
5.073402932E0,-1.999242306E0,-2.317447402E-2,-9.193848372E-1
5.078460640E0,-1.872476101E0,-3.915342689E-2,-8.821006417E-1
5.083518400E0,-1.770210743E0,-5.513238162E-2,-8.512079716E-1
5.088576109E0,-1.684456944E0,-7.910080999E-2,-8.256416321E-1
5.093633817E0,-1.610953808E0,-1.041345075E-1,-8.054016829E-1
5.098678244E0,-1.540646434E0,-1.201134622E-1,-7.862269282E-1
5.103736005E0,-1.464480042E0,-1.334292442E-1,-7.686500549E-1
5.108793713E0,-1.375530601E0,-1.398208141E-1,-7.500079274E-1
5.113851473E0,-1.262080073E0,-1.360923946E-1,-7.324310541E-1
5.118909182E0,-1.124128342E0,-1.265050322E-1,-7.175173759E-1
5.123966942E0,-9.781873226E-1,-1.190482005E-1,-7.116584182E-1
5.129011890E0,-8.391704559E-1,-1.254397780E-1,-7.121911049E-1
5.134069650E0,-7.124040723E-1,-1.494081914E-1,-7.116584182E-1
5.139127359E0,-5.978882909E-1,-1.968124211E-1,-6.983426213E-1
5.144185119E0,-4.966883063E-1,-2.639240324E-1,-6.727763414E-1
5.149242828E0,-3.976187706E-1,-3.395577371E-1,-6.291005015E-1
5.154300536E0,-3.033429682E-1,-4.146588147E-1,-5.667825937E-1
5.159344859E0,-2.080018520E-1,-4.625956714E-1,-4.836920500E-1
5.164402567E0,-1.094649881E-1,-4.711177945E-1,-4.021993876E-1
5.169460328E0,-8.797579445E-3,-4.471493363E-1,-3.420120180E-1
5.174518036E0,9.186981618E-2,-3.890924752E-1,-3.068583310E-1
5.179575744E0,1.946677566E-1,-3.012082279E-1,-2.908793390E-1
5.184633453E0,3.054551482E-1,-1.898882091E-1,-2.882162035E-1
5.189765015E0,4.146446586E-1,-5.246922374E-2,-2.892814577E-1
5.194822775E0,5.115836859E-1,1.099834591E-1,-2.850204110E-1
5.199880536E0,5.925437212E-1,2.889477313E-1,-2.866182923E-1
5.204938244E0,6.559268832E-1,4.743036032E-1,-3.020646274E-1
5.209995953E0,7.059943080E-1,6.511372924E-1,-3.388161957E-1
5.215053713E0,7.502027154E-1,8.141226768E-1,-3.856878281E-1
5.220035015E0,7.917479873E-1,9.632595778E-1,-4.410814941E-1
5.225092723E0,8.215753436E-1,1.098548055E0,-5.049973130E-1
5.230150484E0,8.316953778E-1,1.232238650E0,-5.721089244E-1
5.235208192E0,8.119879961E-1,1.347287059E0,-6.386879086E-1
5.240265953E0,7.651163936E-1,1.403746128E0,-6.972773671E-1
5.245323661E0,6.996026635E-1,1.364863992E0,-7.484100461E-1
5.250411161E0,6.197079420E-1,1.230640769E0,-7.904879451E-1
5.255468869E0,5.414111018E-1,1.024512291E0,-8.123258352E-1
5.260526682E0,4.588530958E-1,7.896215916E-1,-8.155216575E-1
5.265584390E0,3.794909716E-1,5.664488673E-1,-7.974121571E-1
5.270642098E0,3.070530295E-1,3.842888176E-1,-7.601279020E-1
5.275699807E0,2.436698824E-1,2.612508833E-1,-7.068647146E-1
5.280749911E0,1.898740679E-1,2.005308717E-1,-6.445468664E-1
5.285807671E0,1.547203660E-1,2.026613951E-1,-5.848920941E-1
5.290865380E0,1.461982578E-1,2.495329827E-1,-5.353573561E-1
5.295923088E0,1.611119509E-1,3.203729987E-1,-5.087257624E-1
5.300980848E0,2.053203881E-1,4.008004069E-1,-5.065952539E-1
5.306038557E0,2.798888385E-1,4.870867431E-1,-5.263025761E-1
5.311120953E0,3.778930604E-1,5.696446896E-1,-5.508036613E-1
5.316178713E0,4.982678592E-1,6.324952245E-1,-5.785005093E-1
5.321236421E0,6.260995269E-1,6.607246995E-1,-6.008710265E-1
5.326294130E0,7.502027154E-1,6.569962502E-1,-6.120563149E-1
5.331351890E0,8.679143190E-1,6.261036396E-1,-6.205784082E-1
5.336409598E0,9.792343378E-1,5.749710202E-1,-6.291005015E-1
5.341455015E0,1.075640798E0,5.179794431E-1,-6.285679340E-1
5.346512775E0,1.151274443E0,4.561941028E-1,-6.168499589E-1
5.351570484E0,1.201874375E0,3.858867288E-1,-5.971426368E-1
5.356628192E0,1.221049190E0,3.187751174E-1,-5.683804750E-1
5.361685953E0,1.217853427E0,2.537940443E-1,-5.279005170E-1
5.366743661E0,1.186428070E0,1.898782253E-1,-4.735720456E-1
5.371801109E0,1.131567001E0,1.339519024E-1,-3.995362520E-1
5.376858869E0,1.055400610E0,9.560240060E-2,-3.207067549E-1
5.381916578E0,9.637880325E-1,7.536239177E-2,-2.370835394E-1
5.386974338E0,8.625880480E-1,7.909081876E-2,-1.491993070E-1
5.392032046E0,7.576595545E-1,1.009287238E-1,-5.811927468E-2
5.397089755E0,6.527311206E-1,1.217013672E-1,3.775443882E-2
5.402146109E0,5.541942716E-1,1.328866333E-1,1.352260411E-1
5.407203869E0,4.727015197E-1,1.158424094E-1,2.353608161E-1
5.412261682E0,4.055899084E-1,6.630765647E-2,3.354955912E-1
5.417319494E0,3.464677930E-1,-9.326049127E-3,4.361629784E-1
5.422377307E0,2.942698598E-1,-1.041345075E-1,5.309714675E-1
5.427435067E0,2.452677786E-1,-2.149219066E-1,6.279104352E-1
5.432492359E0,1.920045912E-1,-3.427535295E-1,7.275125980E-1
5.437550119E0,1.366108805E-1,-4.737809300E-1,8.260494471E-1
5.442607932E0,7.269507647E-2,-5.978841186E-1,9.256515503E-1
5.447665744E0,-4.003892653E-3,-7.092041969E-1,1.025786400E0
5.452723557E0,-9.242077172E-2,-8.066757917E-1,1.119529605E0
5.457781317E0,-1.792397350E-1,-8.817768693E-1,1.211674929E0
5.462838505E0,-2.575366199E-1,-9.339747429E-1,1.291569591E0
5.467896317E0,-3.198545277E-1,-9.515516162E-1,1.354952812E0
5.472954078E0,-3.582040071E-1,-9.355726242E-1,1.403422236E0
5.478011890E0,-3.779114187E-1,-8.839073777E-1,1.438043356E0
5.483069703E0,-3.816398382E-1,-8.066757917E-1,1.457750797E0
5.488127515E0,-3.699219227E-1,-7.161283493E-1,1.471599102E0
5.493187775E0,-3.406271636E-1,-6.181241870E-1,1.481186509E0
5.498245536E0,-3.107998073E-1,-5.174567699E-1,1.489176035E0
5.503303348E0,-2.799071670E-1,-4.215830266E-1,1.498230696E0
5.508361161E0,-2.474166006E-1,-3.347640634E-1,1.504622340E0
5.513418973E0,-2.170566022E-1,-2.559345365E-1,1.511546493E0
5.518476734E0,-1.914902627E-1,-1.776376814E-1,1.515275002E0
5.523532984E0,-1.659239531E-1,-9.507976472E-2,1.516872883E0
5.528590744E0,-1.440860480E-1,-2.401836216E-3,1.512611866E0
5.533648557E0,-1.254439205E-1,9.666766971E-2,1.505154967E0
5.538706369E0,-1.046713069E-1,1.989329606E-1,1.490773916E0
5.543764182E0,-8.389865607E-2,3.001330197E-1,1.475860238E0
5.548821942E0,-6.419128180E-2,3.928109407E-1,1.459881186E0
5.553881161E0,-4.075548425E-2,4.785646498E-1,1.448163390E0
5.558938921E0,-2.424389683E-2,5.430130959E-1,1.443369627E0
5.563996734E0,-1.146073733E-2,5.797646642E-1,1.443369627E0
5.569054546E0,-8.081023116E-4,5.888194442E-1,1.444967508E0
5.574112359E0,2.571612131E-4,5.664488673E-1,1.452424407E0
5.579170119E0,-1.873365371E-3,5.259688497E-1,1.464674950E0
5.584229286E0,-8.081023116E-4,4.727056921E-1,1.476925492E0
5.589287046E0,7.181374356E-3,4.205077887E-1,1.481719136E0
5.594344859E0,3.008454107E-2,3.784298897E-1,1.481186509E0
5.599402671E0,6.630349159E-2,3.422109187E-1,1.474262357E0
5.604460484E0,1.062508747E-1,3.139814138E-1,1.462011814E0
5.609518244E0,1.557856351E-1,2.974698246E-1,1.447630763E0
5.614601109E0,2.026572227E-1,2.862845957E-1,1.438576102E0
5.619658921E0,2.431372404E-1,2.612508833E-1,1.429521203E0
5.624716734E0,2.772256434E-1,2.229013890E-1,1.431119204E0
5.629774546E0,3.139772713E-1,1.733666509E-1,1.433782339E0
5.634832359E0,3.576530516E-1,1.153097749E-1,1.440173984E0
5.639890171E0,4.018614888E-1,6.257923692E-2,1.449228644E0
5.644955848E0,4.508636296E-1,2.103395946E-2,1.458816051E0
5.650013661E0,5.035942197E-1,-6.130258553E-3,1.460413933E0
5.655071473E0,5.456721187E-1,-2.051131614E-2,1.460946560E0
5.660129286E0,5.723037124E-1,-1.997868344E-2,1.460413933E0
5.665187046E0,5.845542550E-1,-2.157657966E-2,1.462544441E0
5.670244911E0,5.909458399E-1,-3.276184946E-2,1.467338204E0
5.675347775E0,6.095879078E-1,-6.045869738E-2,1.472131848E0
5.680405588E0,6.442090273E-1,-8.975344896E-2,1.484382391E0
5.685463400E0,6.873521805E-1,-1.004060879E-1,1.496632814E0
5.690521213E0,7.288974524E-1,-9.241660684E-2,1.503024459E0
5.695579025E0,7.709753513E-1,-6.152396649E-2,1.506752849E0
5.700636838E0,8.343585730E-1,-1.198920794E-2,1.505687594E0
5.705613140E0,9.126554132E-1,5.512239039E-2,1.497698188E0
5.710670953E0,9.968112707E-1,1.408761144E-1,1.484914899E0
5.715728765E0,1.082564950E0,2.484677136E-1,1.458816051E0
5.720786578E0,1.170449138E0,3.741688132E-1,1.423129678E0
5.725844390E0,1.263127089E0,5.275667310E-1,1.376258016E0
5.730902203E0,1.364859819E0,7.054657340E-1,1.317668557E0
5.735963244E0,1.466059804E0,8.998764157E-1,1.247361183E0
5.741021109E0,1.549150348E0,1.083634377E0,1.171727538E0
5.746078869E0,1.608272433E0,1.235967040E0,1.098224401E0
5.751136682E0,1.649285078E0,1.350482941E0,1.032710552E0
5.756194494E0,1.667394519E0,1.420790315E0,9.805126190E-1
5.761252307E0,1.675916672E0,1.447954416E0,9.389673471E-1
5.766312723E0,1.686569333E0,1.443693519E0,9.086073637E-1
5.771370588E0,1.696156740E0,1.415996552E0,8.867694139E-1
5.776428400E0,1.703081012E0,1.372320771E0,8.787800074E-1
5.781486161E0,1.692428231E0,1.328644991E0,8.830410242E-1
5.786543973E0,1.671655655E0,1.286034346E0,8.910305500E-1
5.791601786E0,1.640230417E0,1.249815583E0,9.054116011E-1
5.796674650E0,1.601348281E0,1.215727091E0,9.144663215E-1
5.801732463E0,1.558737755E0,1.187497497E0,9.165968299E-1
5.806790275E0,1.510268211E0,1.166724920E0,9.070094824E-1
5.811848088E0,1.455407143E0,1.158202887E0,8.835737109E-1
5.816905848E0,1.400546074E0,1.170453310E0,8.393652439E-1
5.821963713E0,1.351011395E0,1.198682785E0,7.765146494E-1
5.827034650E0,1.308400750E0,1.241826057E0,7.008810043E-1
5.832092411E0,1.278573394E0,1.290295482E0,6.066051722E-1
5.837150223E0,1.254072428E0,1.337167144E0,5.117967129E-1
5.842208036E0,1.243419647E0,1.371788144E0,4.143250883E-1
5.847265796E0,1.232767105E0,1.392028213E0,3.227124214E-1
5.852323661E0,1.225842953E0,1.388832331E0,2.417524010E-1
5.857381473E0,1.216788173E0,1.367527127E0,1.687818468E-1
5.862407671E0,1.207733393E0,1.347287059E0,1.022028849E-1
5.867465432E0,1.194950223E0,1.338765025E0,4.521128163E-2
5.872523296E0,1.174177647E0,1.351548195E0,-5.921366625E-3
5.877581057E0,1.162992358E0,1.377647042E0,-4.640138149E-2
5.882638921E0,1.156068087E0,1.409072399E0,-7.889191806E-2
5.887696682E0,1.156068087E0,1.431975603E0,-1.049908698E-1
5.892735588E0,1.160861850E0,1.438367128E0,-1.225677133E-1
5.897793400E0,1.169383883E0,1.411735535E0,-1.172413975E-1
5.902851213E0,1.176840782E0,1.340895534E0,-9.167507291E-2
5.907909025E0,1.167786002E0,1.232771277E0,-3.574874252E-2
5.912966786E0,1.137958646E0,1.111863852E0,3.935233504E-2
5.918024598E0,1.098011255E0,9.680532217E-1,1.314976215E-1
5.923105328E0,1.052204847E0,8.130573630E-1,2.236429155E-1
5.928163140E0,1.015985966E0,6.692467928E-1,3.115271330E-1
5.933220953E0,9.701796770E-1,5.653836131E-1,3.828998208E-1
5.938278765E0,9.089269638E-1,5.344909430E-1,4.361629784E-1
5.943336578E0,8.306301236E-1,6.159836054E-1,4.723819494E-1
5.948394390E0,7.470069528E-1,7.858931422E-1,4.974156320E-1
5.953448400E0,6.548616886E-1,9.669879675E-1,5.080682635E-1
5.958506213E0,5.664448142E-1,1.096950173E0,4.888935387E-1
5.963564025E0,4.812236428E-1,1.125179648E0,4.361629784E-1
5.968621838E0,4.071878195E-1,1.020251155E0,3.482787609E-1
5.973679650E0,3.507288396E-1,8.577984571E-1,2.348281890E-1
5.978737411E0,3.118467033E-1,7.214447260E-1,1.069965735E-1
5.983808817E0,2.804214358E-1,6.777688861E-1,-3.947716579E-2
5.988866630E0,2.282235622E-1,7.901542187E-1,-1.966035366E-1
5.993924442E0,1.541877389E-1,1.074046969E0,-3.766330779E-1
5.998982255E0,8.494560421E-2,1.511870384E0,-5.939468145E-1
6.004040067E0,6.417296827E-2,2.062611341E0,-8.330984712E-1
6.009097880E0,1.169035137E-1,2.637321234E0,-1.080239654E0
6.014141890E0,2.372782826E-1,3.108700275E0,-1.314597487E0
6.019199703E0,3.976004422E-1,3.376614094E0,-1.516464949E0
6.024257515E0,5.595205426E-1,3.425616264E0,-1.661873460E0
6.029315328E0,6.878848076E-1,3.277544498E0,-1.741768122E0
6.034373140E0,7.539311051E-1,2.967020273E0,-1.758279800E0
6.039430900E0,7.565943003E-1,2.529729605E0,-1.730582833E0
6.044514598E0,6.953416467E-1,1.991771460E0,-1.661340833E0
6.049572411E0,6.000005603E-1,1.384571314E0,-1.562271357E0
6.054630223E0,4.881478250E-1,7.789689898E-1,-1.426982760E0
6.059688036E0,3.768277764E-1,2.564572096E-1,-1.278378487E0
6.064745796E0,2.873456776E-1,-1.190482005E-1,-1.128176332E0
6.069803661E0,2.298214585E-1,-3.054692745E-1,-9.790396094E-1
6.074820640E0,2.106467187E-1,-2.878924310E-1,-8.384248018E-1
6.079878453E0,2.351477593E-1,-8.389449865E-2,-7.217784524E-1
6.084936265E0,2.937372327E-1,2.585877180E-1,-6.264373660E-1
6.089994078E0,3.507288396E-1,7.289015651E-1,-5.300309658E-1
6.095051890E0,4.023941457E-1,1.210400701E0,-4.245699346E-1
6.100109703E0,4.439393878E-1,1.626918793E0,-3.436098993E-1
6.105186213E0,4.705709815E-1,2.006152630E0,-2.722372711E-1
6.110244025E0,4.966699481E-1,2.310285330E0,-2.104519606E-1
6.115301838E0,5.211710334E-1,2.518011570E0,-1.678414196E-1
6.120359650E0,5.557921529E-1,2.653832912E0,-1.369487792E-1
6.125417463E0,6.000005603E-1,2.740119219E0,-1.129803509E-1
6.130475275E0,6.511331797E-1,2.777935982E0,-9.540349990E-2
6.135535328E0,7.001353502E-1,2.764087439E0,-9.060981125E-2
6.140593140E0,7.368869185E-1,2.698573828E0,-9.114244580E-2
6.145650953E0,7.523332238E-1,2.579264164E0,-1.007298157E-1
6.150708765E0,7.416806221E-1,2.413083315E0,-1.161761358E-1
6.155766578E0,7.198426723E-1,2.216009378E0,-1.268287897E-1
6.160824390E0,6.878848076E-1,2.008815765E0,-1.337529868E-1
6.165884807E0,6.532637477E-1,1.809611440E0,-1.305572093E-1
6.170942619E0,6.165121794E-1,1.640234590E0,-1.177740246E-1
6.176000432E0,5.765647888E-1,1.511870384E0,-9.806665033E-2
6.181058244E0,5.328889489E-1,1.429312348E0,-6.877190620E-2
6.186116057E0,4.860173166E-1,1.396821856E0,-2.669400536E-2
6.191173869E0,4.327541292E-1,1.403746128E0,2.763443254E-2
6.196226890E0,3.651098907E-1,1.438899755E0,8.356077224E-2
6.201284703E0,2.942698598E-1,1.487369299E0,1.405523717E-1
6.206342515E0,2.133098543E-1,1.528914571E0,1.762386858E-1
6.211400328E0,1.318172067E-1,1.550752401E0,1.842281669E-1
6.216458088E0,5.511823297E-2,1.538501978E0,1.767713130E-1
6.221515953E0,-4.536524415E-3,1.503880858E0,1.554660499E-1
6.226578869E0,-4.235338047E-2,1.445823908E0,1.203123629E-1
6.231636682E0,-6.312602013E-2,1.365929127E0,7.024497539E-2
6.236694494E0,-7.005023956E-2,1.273251295E0,6.861795206E-3
6.241752307E0,-6.046286225E-2,1.189095497E0,-6.717400998E-2
6.246810067E0,-4.022285342E-2,1.151278615E0,-1.326877326E-1
6.251867932E0,-1.092810649E-2,1.172051191E0,-1.848856360E-1
6.256926630E0,3.754138574E-2,1.240760684E0,-2.408119738E-1
6.261984442E0,8.547823131E-2,1.324383855E0,-2.935425341E-1
6.267042255E0,1.254256219E-1,1.389364958E0,-3.473383486E-1
6.272100067E0,1.579161733E-1,1.412800789E0,-4.011341333E-1
6.277157880E0,1.637751162E-1,1.398419738E0,-4.421467781E-1
6.282215692E0,1.509919465E-1,1.356874466E0,-4.661152065E-1
6.287259182E0,1.238277182E-1,1.297752261E0,-4.767678380E-1
6.292316942E0,8.547823131E-2,1.229575396E0,-4.703762531E-1
6.297374755E0,4.659612477E-2,1.146484971E0,-4.485383332E-1
6.302432567E0,1.090979669E-2,1.030371189E0,-4.080583453E-1
6.307490380E0,-3.436389938E-2,8.732448220E-1,-3.457404375E-1
6.312548192E0,-1.094649881E-1,6.804320216E-1,-2.637151480E-1
6.317616994E0,-2.005450130E-1,4.796299040E-1,-1.737003624E-1
6.322674807E0,-3.028103411E-1,2.953393161E-1,-7.835927606E-2
6.327732567E0,-4.072061479E-1,1.573876888E-1,9.524953552E-3
6.332790432E0,-5.073408484E-1,1.009287238E-1,8.941972256E-2
6.337848192E0,-5.925619006E-1,1.232992634E-1,1.559986919E-1
6.342906057E0,-6.500861645E-1,2.026613951E-1,2.151208073E-1
6.348040275E0,-6.671304107E-1,3.182424605E-1,2.614597678E-1
6.353098088E0,-6.554124951E-1,4.620530605E-1,2.955482006E-1
6.358155900E0,-6.175956130E-1,6.314299703E-1,3.099292815E-1
6.363213713E0,-5.659303069E-1,8.114595413E-1,3.067334592E-1
6.368271525E0,-5.147976875E-1,9.941522479E-1,2.859608233E-1
6.373329338E0,-4.652630091E-1,1.173116565E0,2.566660941E-1
6.378302359E0,-4.242503643E-1,1.328644991E0,2.268387079E-1
6.383360171E0,-3.901619315E-1,1.444226027E0,2.034029067E-1
6.388417984E0,-3.539429605E-1,1.508141875E0,1.884892285E-1
6.393475796E0,-3.225176930E-1,1.515598774E0,1.757060587E-1
6.398533557E0,-2.884292603E-1,1.491097689E0,1.698471010E-1
6.403591421E0,-2.527429461E-1,1.454346061E0,1.714450121E-1
6.408672359E0,-2.197197527E-1,1.393626094E0,1.773039550E-1
6.413730328E0,-1.946860701E-1,1.310002923E0,1.900871098E-1
6.418788140E0,-1.813702732E-1,1.221585989E0,2.065987140E-1
6.423846109E0,-1.637934148E-1,1.145952225E0,2.268387079E-1
6.428903973E0,-1.318355054E-1,1.093221784E0,2.422850281E-1
6.433961890E0,-9.508392960E-2,1.067122817E0,2.497418672E-1
6.438995328E0,-5.833233148E-2,1.058600664E0,2.609271407E-1
6.444053244E0,-2.104810812E-2,1.064992309E0,2.726450264E-1
6.449111109E0,5.583479069E-3,1.069253325E0,2.816997766E-1
6.454169078E0,1.889927313E-2,1.060731173E0,2.955482006E-1
6.459226942E0,1.304032281E-2,1.037827969E0,3.115271330E-1
6.464284859E0,-2.317863517E-2,1.012794375E0,3.259082139E-1
6.469346213E0,-6.685444713E-2,9.920216203E-1,3.440176845E-1
6.474404130E0,-9.561656415E-2,9.605963826E-1,3.466808498E-1
6.479462046E0,-1.115955114E-1,9.169206023E-1,3.440176845E-1
6.484519911E0,-1.291723549E-1,8.785710931E-1,3.354955912E-1
6.489577775E0,-1.419555247E-1,8.689837456E-1,3.205818832E-1
6.494635744E0,-1.430207789E-1,8.807016611E-1,3.179187477E-1
6.499685380E0,-1.424881518E-1,8.977458477E-1,3.237777054E-1
6.504743296E0,-1.382270902E-1,9.041374326E-1,3.386913836E-1
6.509801213E0,-1.270418316E-1,8.945500255E-1,3.647903204E-1
6.514859078E0,-1.174544618E-1,8.780384064E-1,3.924871981E-1
6.519916994E0,-1.041386724E-1,8.695163131E-1,4.191187620E-1
6.524974859E0,-8.656182140E-2,8.737773895E-1,4.473482370E-1
6.530087567E0,-5.886495858E-2,8.833647966E-1,4.761103690E-1
6.535145484E0,-1.518915873E-2,9.131921530E-1,5.027419329E-1
6.540203348E0,2.475822344E-2,9.542047977E-1,5.245798230E-1
6.545261265E0,6.097718328E-2,9.968153834E-1,5.405588150E-1
6.550319130E0,8.388034254E-2,1.035697460E0,5.560051203E-1
6.555377046E0,9.293507785E-2,1.062861800E0,5.730493069E-1
6.560400223E0,8.707613498E-2,1.072449088E0,5.938220024E-1
6.565458088E0,7.429296523E-2,1.071916461E0,6.231167316E-1
6.570516005E0,5.192244425E-2,1.066057444E0,6.534767747E-1
6.575573869E0,1.517085079E-2,1.060198545E0,6.817062497E-1
6.580631786E0,-2.957021445E-2,1.057535410E0,6.982178092E-1
6.585689650E0,-8.602919430E-2,1.072449088E0,7.062072754E-1
6.590746057E0,-1.414228827E-1,1.092689037E0,7.110009789E-1
6.595803921E0,-1.792397350E-1,1.100678563E0,7.110009789E-1
6.600861838E0,-1.957513243E-1,1.093754411E0,7.104683518E-1
6.605919755E0,-2.021428943E-1,1.084167004E0,6.982178092E-1
6.610977619E0,-2.021428943E-1,1.083634377E0,6.753146648E-1
6.616035536E0,-1.904250085E-1,1.085764885E0,6.508136392E-1
6.621094078E0,-1.739134192E-1,1.087362766E0,6.332367063E-1
6.626151942E0,-1.563365757E-1,1.077775359E0,6.279104352E-1
6.631209859E0,-1.531407833E-1,1.055404902E0,6.337693334E-1
6.636267723E0,-1.659239531E-1,1.011729121E0,6.497483253E-1
6.641325640E0,-1.872292161E-1,9.440848231E-1,6.710535884E-1
6.646383557E0,-2.191871256E-1,8.583310843E-1,6.928914785E-1
6.651439338E0,-2.516776621E-1,7.651205063E-1,7.120662332E-1
6.656497150E0,-2.878966331E-1,6.798994541E-1,7.269799113E-1
6.661555119E0,-3.225176930E-1,6.085267663E-1,7.397630811E-1
6.666612984E0,-3.486166298E-1,5.557962656E-1,7.530788779E-1
6.671670900E0,-3.661935031E-1,5.190446377E-1,7.631988525E-1
6.676728765E0,-3.747155964E-1,4.892172813E-1,7.786452174E-1
6.681788348E0,-3.773787618E-1,4.652488530E-1,7.967547178E-1
6.686846213E0,-3.848356009E-1,4.364867508E-1,8.223209977E-1
6.691904130E0,-4.066735208E-1,3.997351527E-1,8.532136083E-1
6.696961994E0,-4.327724576E-1,3.539288044E-1,8.857041597E-1
6.702019911E0,-4.657956362E-1,2.980024815E-1,9.187273979E-1
6.707077828E0,-4.913619757E-1,2.383477092E-1,9.464241862E-1
6.712135484E0,-5.084061027E-1,1.749645323E-1,9.634683728E-1
6.717193348E0,-5.195913911E-1,1.131792516E-1,9.730557799E-1
6.722251265E0,-5.281134844E-1,6.204660237E-2,9.703926444E-1
6.727309130E0,-5.281134844E-1,1.890343428E-2,9.602726698E-1
6.732367046E0,-5.158629417E-1,-1.518499851E-2,9.400326014E-1
6.737424911E0,-4.913619757E-1,-3.276184946E-2,9.096726179E-1
6.742480119E0,-4.572735429E-1,-2.637026459E-2,8.734536767E-1
6.747537984E0,-4.151956141E-1,1.144658960E-2,8.319084048E-1
6.752595900E0,-3.672587574E-1,7.962344587E-2,7.839714885E-1
6.757653765E0,-3.246482313E-1,1.717687547E-1,7.317736149E-1
6.762711682E0,-2.868313491E-1,2.804256380E-1,6.726515293E-1
6.767769598E0,-2.586019039E-1,3.938761950E-1,6.183230877E-1
6.772825848E0,-2.383618653E-1,5.009351373E-1,5.687882900E-1
6.777883713E0,-2.213176489E-1,5.957436562E-1,5.203188062E-1
6.782941630E0,-2.245134413E-1,6.713773608E-1,4.819693267E-1
6.787999494E0,-2.420902848E-1,7.267710567E-1,4.595988095E-1
6.793057411E0,-2.676566243E-1,7.597942352E-1,4.500114322E-1
6.798115275E0,-2.910923958E-1,7.736425996E-1,4.478808641E-1
6.803176265E0,-3.065387607E-1,7.491415739E-1,4.409566820E-1
6.808234130E0,-3.235829473E-1,6.761710048E-1,4.334998429E-1
6.813292046E0,-3.464861214E-1,5.707099438E-1,4.441524446E-1
6.818349911E0,-3.768461347E-1,4.455415010E-1,4.856977463E-1
6.823407828E0,-3.986840546E-1,3.262319565E-1,5.496135354E-1
6.828465744E0,-4.125324786E-1,2.516635358E-1,6.124641299E-1
6.833528505E0,-4.301093221E-1,2.447392941E-1,6.747819781E-1
6.838586369E0,-4.482187927E-1,3.086551130E-1,7.211210132E-1
6.843644286E0,-4.615345895E-1,4.125182927E-1,7.637315392E-1
6.848702150E0,-4.982861876E-1,4.870867431E-1,8.127336502E-1
6.853760067E0,-5.669956207E-1,5.350236297E-1,8.164620399E-1
6.858817932E0,-5.930945873E-1,7.081289291E-1,8.830410242E-1
6.863873192E0,-5.685935020E-1,8.567332029E-1,1.042830586E0
6.868931057E0,-5.238524675E-1,8.886910677E-1,1.175455928E0
6.873988973E0,-4.663282633E-1,8.673858643E-1,1.238306403E0
6.879046838E0,-3.981513977E-1,8.332974315E-1,1.258546472E0
6.884104755E0,-3.374314010E-1,8.013394475E-1,1.256415963E0
6.889162619E0,-2.889618874E-1,7.864258289E-1,1.254817963E0
6.894215588E0,-2.617976665E-1,8.018721342E-1,1.259611726E0
6.899273453E0,-2.628629506E-1,8.455479145E-1,1.258013844E0
6.904331369E0,-2.868313491E-1,9.195837379E-1,1.247361183E0
6.909389234E0,-3.209198117E-1,1.018120766E0,1.223925471E0
6.914447150E0,-3.416924477E-1,1.131038547E0,1.183445454E0
6.919505015E0,-3.193219006E-1,1.248217583E0,1.129649520E0
6.924584182E0,-2.410250306E-1,1.360070348E0,1.062538028E0
6.929642098E0,-1.201176271E-1,1.446889281E0,9.773168564E-1
6.934699963E0,2.262769639E-2,1.499619722E0,8.819757700E-1
6.939757880E0,1.573835313E-1,1.521457672E0,7.850367427E-1
6.944815796E0,2.532572448E-1,1.528381944E0,6.849020123E-1
6.949873713E0,2.889435589E-1,1.551285028E0,5.815714598E-1
6.954915484E0,2.745625079E-1,1.617864013E0,4.675882757E-1
6.959973400E0,2.362130284E-1,1.729184031E0,3.418871462E-1
6.965031317E0,1.962656528E-1,1.857015729E0,1.895544827E-1
6.970089234E0,1.664382815E-1,1.993369341E0,1.964495704E-2
6.975147098E0,1.557856351E-1,2.132386446E0,-1.523950994E-1
6.980205015E0,1.621772200E-1,2.255424261E0,-3.137825131E-1
6.985246994E0,1.760256439E-1,2.343308449E0,-4.458751976E-1
6.990304911E0,1.765582711E-1,2.373668671E0,-5.284330845E-1
6.995362828E0,1.137077138E-1,2.323601246E0,-5.470752716E-1
7.000420692E0,-6.667051464E-3,2.187779903E0,-5.220415592E-1
7.005478609E0,-1.318355054E-1,1.984847307E0,-4.762352109E-1
7.010536525E0,-2.282418609E-1,1.744630337E0,-4.197762311E-1
7.015618713E0,-3.017450571E-1,1.516131282E0,-3.606541157E-1
7.020676630E0,-3.592692912E-1,1.322253346E0,-3.068583310E-1
7.025734494E0,-3.890966773E-1,1.165127039E0,-2.503993511E-1
7.030792411E0,-3.832376897E-1,1.040491223E0,-1.918098480E-1
7.035850328E0,-3.470187783E-1,9.531394839E-1,-1.326877326E-1
7.040908192E0,-2.788418829E-1,9.174532294E-1,-7.782664895E-2
7.045982046E0,-1.771092117E-1,9.440848231E-1,-3.894453496E-2
7.051039963E0,-3.276600689E-2,1.017055392E0,-2.456347831E-2
7.056097828E0,1.477961540E-1,1.095352292E0,-4.000979662E-2
7.061155796E0,3.203688264E-1,1.157670140E0,-8.102244139E-2
7.066213661E0,4.556572735E-1,1.213596582E0,-1.316224635E-1
7.071271578E0,5.515310764E-1,1.264196515E0,-1.593193263E-1
7.076313765E0,6.117184758E-1,1.299882889E0,-1.598519385E-1
7.081371734E0,6.484700441E-1,1.316927075E0,-1.401445717E-1
7.086429598E0,6.596552730E-1,1.318524957E0,-1.023277044E-1
7.091487515E0,6.591227055E-1,1.315861821E0,-4.427085444E-2
7.096545380E0,6.804279685E-1,1.324383855E0,3.402601555E-2
7.101603296E0,7.294300795E-1,1.353146076E0,1.171165779E-1
7.106652880E0,8.013353348E-1,1.414398670E0,1.916850060E-1
7.111710796E0,8.780343533E-1,1.503348231E0,2.465460747E-1
7.116768661E0,9.376891255E-1,1.609341860E0,2.896892428E-1
7.121826578E0,9.818975329E-1,1.701487184E0,3.333650529E-1
7.126884442E0,1.000006914E0,1.767533541E0,3.860955834E-1
7.131942411E0,9.978764653E-1,1.789371490E0,4.500114322E-1
7.137002723E0,9.797670245E-1,1.766468287E0,5.251125097E-1
7.142060640E0,9.483417273E-1,1.721727252E0,5.986156464E-1
7.147118505E0,9.179817438E-1,1.684975624E0,6.635967493E-1
7.152176421E0,9.014701247E-1,1.666866183E0,7.173925042E-1
7.157234338E0,8.950785995E-1,1.684975624E0,7.493504882E-1
7.162292255E0,8.956111670E-1,1.739304066E0,7.711883783E-1
7.167347463E0,8.977417350E-1,1.821861982E0,7.797104716E-1
7.172405328E0,9.078617096E-1,1.907615662E0,7.781125903E-1
7.177463192E0,9.211775064E-1,1.958215714E0,7.807757258E-1
7.182521109E0,9.323627353E-1,1.961411476E0,7.903631330E-1
7.187579025E0,9.446133375E-1,1.920931458E0,8.106030822E-1
7.192636890E0,9.589943290E-1,1.861809373E0,8.367020488E-1
7.197694807E0,9.685817361E-1,1.806415677E0,8.649315238E-1
7.202724494E0,9.739080667E-1,1.764870286E0,8.931609988E-1
7.207782359E0,9.712449312E-1,1.729716659E0,9.144663215E-1
7.212840275E0,9.648532867E-1,1.702552438E0,9.379020929E-1
7.217898192E0,9.552659392E-1,1.692965031E0,9.682620764E-1
7.222956057E0,9.435480833E-1,1.703085065E0,1.001817942E0
7.228013973E0,9.281017184E-1,1.729716659E0,1.028449655E0
7.233091265E0,9.174490571E-1,1.764337778E0,1.051352620E0
7.238149182E0,9.142533541E-1,1.789371490E0,1.075321198E0
7.243207046E0,9.078617096E-1,1.796295643E0,1.104083300E0
7.248264963E0,8.924153447E-1,1.787773490E0,1.143498063E0
7.253322880E0,8.711101413E-1,1.772327304E0,1.192500114E0
7.258380744E0,8.471416831E-1,1.751021981E0,1.250557065E0
7.263419859E0,8.242385387E-1,1.712672472E0,1.315005422E0
7.268477723E0,8.039985299E-1,1.662072539E0,1.383182287E0
7.273535640E0,7.864216566E-1,1.594428182E0,1.454554915E0
7.278593557E0,7.672469020E-1,1.521457672E0,1.526992917E0
7.283651421E0,7.496700883E-1,1.447954416E0,1.591441274E0
7.288709286E0,7.363542914E-1,1.388832331E0,1.639910817E0
7.293786057E0,7.315606475E-1,1.355809212E0,1.670270801E0
7.298843973E0,7.320932150E-1,1.353678703E0,1.681456089E0
7.303901890E0,7.304953337E-1,1.376049161E0,1.676129818E0
7.308959755E0,7.225058675E-1,1.413333535E0,1.656955004E0
7.314017671E0,6.948089600E-1,1.459139705E0,1.635649800E0
7.319075536E0,6.660469174E-1,1.485771298E0,1.616474986E0
7.324136838E0,6.548616886E-1,1.487369299E0,1.606887579E0
7.329194703E0,6.553942561E-1,1.469792366E0,1.605289817E0
7.334252671E0,6.639163494E-1,1.427714467E0,1.601561308E0
7.339310536E0,6.708406210E-1,1.372853398E0,1.588245511E0
7.344368453E0,6.804279685E-1,1.331840754E0,1.558418155E0
7.349426369E0,6.990700960E-1,1.316394567E0,1.510481358E0
7.354494442E0,7.241038084E-1,1.327579737E0,1.443902373E0
7.359552359E0,7.486048341E-1,1.350482941E0,1.373594999E0
7.364610223E0,7.773669362E-1,1.382973313E0,1.306483269E0
7.369668140E0,8.055964112E-1,1.418659806E0,1.250557065E0
7.374726057E0,8.269016743E-1,1.450085044E0,1.205283284E0
7.379783921E0,8.412827253E-1,1.475651383E0,1.164803267E0
7.384827775E0,8.545985222E-1,1.496956587E0,1.132312775E0
7.389885640E0,8.604574800E-1,1.509739757E0,1.104083300E0
7.394943505E0,8.599248528E-1,1.511337638E0,1.083310723E0
7.400001421E0,8.572616577E-1,1.513468266E0,1.062538028E0
7.405059338E0,8.482069373E-1,1.519327164E0,1.038036823E0
7.410117203E0,8.311627507E-1,1.531045079E0,1.020992637E0
7.415177411E0,8.050637841E-1,1.543295622E0,1.005546451E0
7.420235275E0,7.731058598E-1,1.558741927E0,9.948936701E-1
7.425293088E0,7.358216643E-1,1.580047250E0,9.906326532E-1
7.430350900E0,7.043963671E-1,1.615733504E0,9.879695177E-1
7.435408765E0,6.798953414E-1,1.681779861E0,9.885020852E-1
7.440466578E0,6.532637477E-1,1.772859812E0,9.916979074E-1
7.445518973E0,6.229037046E-1,1.889506221E0,9.916979074E-1
7.450576786E0,5.781626701E-1,2.025860071E0,9.874368310E-1
7.455634650E0,5.190405846E-1,2.172866344E0,9.847736955E-1
7.460692463E0,4.482004344E-1,2.307622194E0,9.730557799E-1
7.465750275E0,3.842846453E-1,2.405093908E0,9.442936778E-1
7.470808140E0,3.432720006E-1,2.435986519E0,9.112704992E-1
7.475873348E0,3.262277842E-1,2.398702145E0,8.787800074E-1
7.480931161E0,3.336846232E-1,2.288447380E0,8.409631252E-1
7.485989025E0,3.624467552E-1,2.103624105E0,7.999504805E-1
7.491046838E0,3.954699039E-1,1.859678864E0,7.552094460E-1
7.496104650E0,4.348846674E-1,1.588569283E0,7.216535807E-1
7.501162463E0,4.716362655E-1,1.316927075E0,6.918262243E-1
7.506215588E0,5.110510588E-1,1.068188071E0,6.630641222E-1
7.511273400E0,5.430089235E-1,8.567332029E-1,6.396282911E-1
7.516331213E0,5.749669075E-1,6.905521154E-1,6.193883419E-1
7.521389078E0,6.005331874E-1,5.515351892E-1,6.044746041E-1
7.526446890E0,6.335563660E-1,4.300951660E-1,5.852999091E-1
7.531504755E0,6.772321463E-1,3.219709098E-1,5.570703745E-1
7.536563036E0,7.486048341E-1,2.175750881E-1,5.096662045E-1
7.541620848E0,8.439458609E-1,1.067876741E-1,4.430871904E-1
7.546678661E0,9.296995997E-1,2.316448838E-2,3.717145622E-1
7.551736525E0,9.882891178E-1,3.008870035E-2,2.987439930E-1
7.556794338E0,9.802996516E-1,1.499308497E-1,2.215123922E-1
7.561852203E0,9.057311416E-1,3.853540719E-1,1.373565644E-1
7.566918140E0,7.901501060E-1,7.161183953E-1,4.787444323E-2
7.571976005E0,6.740363836E-1,1.085232258E0,-4.373821989E-2
7.577033869E0,5.483353138E-1,1.416529298E0,-1.401445717E-1
7.582091682E0,3.954699039E-1,1.618929267E0,-2.440077662E-1
7.587149494E0,2.191688120E-1,1.622125149E0,-3.601214886E-1
7.592207359E0,2.262769639E-2,1.444758654E0,-4.671804607E-1
7.597277098E0,-1.499449909E-1,1.210933328E0,-5.508036613E-1
7.602334963E0,-2.367639691E-1,1.077775359E0,-6.035342216E-1
7.607392828E0,-1.909576356E-1,1.141691208E0,-6.637216210E-1
7.612450640E0,-2.317863517E-2,1.354743958E0,-7.468121052E-1
7.617508453E0,2.042551190E-1,1.575253487E0,-8.464142680E-1
7.622566317E0,4.114488661E-1,1.727586150E0,-9.492121935E-1
7.627614598E0,5.371499658E-1,1.803752542E0,-1.022182703E0
7.632672463E0,5.536615849E-1,1.801621914E0,-1.043488026E0
7.637730275E0,4.758973122E-1,1.722792506E0,-1.006203771E0
7.642788140E0,3.581857085E-1,1.605080962E0,-9.412227273E-1
7.647845953E0,2.548551261E-1,1.492162943E0,-8.719805479E-1
7.652903817E0,2.106467187E-1,1.400550246E0,-8.085973859E-1
7.658031421E0,2.473983020E-1,1.339297533E0,-7.558668852E-1
7.663089286E0,3.432720006E-1,1.319590211E0,-7.121911049E-1
7.668147098E0,4.679078460E-1,1.335569143E0,-6.749068499E-1
7.673204963E0,6.090553403E-1,1.396821856E0,-6.461447477E-1
7.678262775E0,7.448763847E-1,1.509207129E0,-6.259047389E-1
7.683320640E0,8.625880480E-1,1.658344150E0,-6.072626114E-1
7.688308609E0,9.510049224E-1,1.826122999E0,-5.934141874E-1
7.693366473E0,1.005333304E0,2.008815765E0,-5.886205435E-1
7.698424286E0,1.044215441E0,2.167007446E0,-5.811637044E-1
7.703482150E0,1.081499696E0,2.261815786E0,-5.779678822E-1
7.708539963E0,1.117718697E0,2.310285330E0,-5.800983906E-1
7.713597775E0,1.168851256E0,2.329460144E0,-5.811637044E-1
7.718644130E0,1.234897614E0,2.327862263E0,-5.880878568E-1
7.723701994E0,1.314792395E0,2.316676855E0,-6.035342216E-1
7.728759807E0,1.393089294E0,2.301230669E0,-6.269699931E-1
7.733817671E0,1.452744007E0,2.296969652E0,-6.562647820E-1
7.738875484E0,1.502811432E0,2.304426432E0,-6.898205280E-1
7.743933296E0,1.544356704E0,2.323601246E0,-7.223110795E-1
7.749056369E0,1.572053552E0,2.361950636E0,-7.516058087E-1
7.754114234E0,1.595489264E0,2.415213823E0,-7.777047753E-1
7.759172046E0,1.625316620E0,2.483390808E0,-7.936837673E-1
7.764229911E0,1.656741977E0,2.563285589E0,-8.016732335E-1
7.769287723E0,1.685504079E0,2.647441149E0,-8.038037419E-1
7.774345588E0,1.704678893E0,2.734260082E0,-8.059342504E-1
7.779342255E0,1.717994690E0,2.839188576E0,-8.075321317E-1
7.784400119E0,1.728114605E0,2.933464527E0,-8.027384281E-1
7.789457984E0,1.744626284E0,2.953171730E0,-7.974121571E-1
7.794515744E0,1.762735605E0,2.902571917E0,-7.819657922E-1
7.799573609E0,1.763800979E0,2.810959101E0,-7.548016310E-1
7.804631473E0,1.745691419E0,2.698041201E0,-7.089952826E-1
7.809699650E0,1.701483011E0,2.576601267E0,-6.466773748E-1
7.814757411E0,1.635436654E0,2.462085247E0,-5.742394328E-1
7.819815275E0,1.564064026E0,2.360885382E0,-4.986057281E-1
7.824873088E0,1.494289279E0,2.255424261E0,-4.235046506E-1
7.829930953E0,1.435167193E0,2.146767378E0,-3.606541157E-1
7.834988765E0,1.386697650E0,2.073796749E0,-3.116520047E-1
7.840022984E0,1.351011395E0,2.045034885E0,-2.764983177E-1
7.845080848E0,1.320118666E0,2.062078953E0,-2.573235631E-1
7.850138661E0,1.295617580E0,2.101493835E0,-2.456056476E-1
7.855196473E0,1.270051241E0,2.155289412E0,-2.269635499E-1
7.860254338E0,1.230636477E0,2.207487345E0,-1.944730133E-1
7.865312150E0,1.180569172E0,2.251163244E0,-1.513298303E-1
7.870385848E0,1.110794425E0,2.272468328E0,-1.033929735E-1
7.875443609E0,1.030367017E0,2.272468328E0,-5.385822430E-2
7.880501473E0,9.408848882E-1,2.260217905E0,-1.337821130E-2
7.885559338E0,8.476743698E-1,2.249032497E0,1.005758531E-2
7.890617150E0,7.603227496E-1,2.237314701E0,1.751442999E-2
7.895674963E0,6.932111382E-1,2.240510702E0,1.538390294E-2
7.900735328E0,6.426110864E-1,2.293241024E0,9.524953552E-3
7.905793088E0,6.010658145E-1,2.394973755E0,-6.241770461E-5
7.910850953E0,5.701732039E-1,2.515348434E0,-8.051894605E-3
7.915908817E0,5.435416102E-1,2.637853861E0,-1.870452985E-2
7.920966630E0,5.094531775E-1,2.756098032E0,-2.349821664E-2
7.926024442E0,4.636467993E-1,2.850906610E0,-1.178031694E-2
7.931063609E0,4.119814932E-1,2.906832933E0,1.218811236E-2
7.936121473E0,3.523267508E-1,2.904169798E0,3.935233504E-2
7.941179286E0,3.038572371E-1,2.831199169E0,6.917971373E-2
7.946237098E0,2.718993425E-1,2.703900337E0,9.421341121E-2
7.951294963E0,2.591161728E-1,2.542512894E0,1.165839434E-1
7.956352775E0,2.585835457E-1,2.374733686E0,1.304323524E-1
7.961410640E0,2.596488297E-1,2.227194786E0,1.368239373E-1
7.966468453E0,2.734972537E-1,2.112678766E0,1.474765837E-1
7.971526265E0,2.926719785E-1,2.044502020E0,1.661186814E-1
7.976584078E0,3.102488518E-1,2.045034885E0,1.879565865E-1
7.981641942E0,3.155751228E-1,2.109483004E0,2.151208073E-1
7.986699755E0,3.155751228E-1,2.203758955E0,2.497418672E-1
7.991785119E0,3.070530295E-1,2.299099922E0,2.870261073E-1
7.996842932E0,2.873456776E-1,2.339579821E0,3.253755867E-1
8.001900796E0,2.447351366E-1,2.292175770E0,3.642576933E-1
8.006958609E0,1.701666862E-1,2.159018040E0,3.946177065E-1
8.012016421E0,7.269507647E-2,1.963542104E0,4.159229994E-1
8.017074286E0,-1.891758107E-2,1.733977795E0,4.324345589E-1
8.022106838E0,-9.188813716E-2,1.514000893E0,4.473482370E-1
8.027164650E0,-1.456839442E-1,1.342493415E0,4.564029872E-1
8.032222515E0,-1.749786884E-1,1.274316549E0,4.622619450E-1
8.037280328E0,-1.909576356E-1,1.340895534E0,4.649250805E-1
8.042338192E0,-1.776418537E-1,1.528914571E0,4.697187841E-1
8.047395953E0,-1.435534060E-1,1.790969372E0,4.755777419E-1
8.052477775E0,-1.020081416E-1,2.082851648E0,4.830345809E-1
8.057535588E0,-7.697445154E-2,2.344373703E0,4.888935387E-1
8.062593400E0,-8.549655974E-2,2.521207333E0,4.990135431E-1
8.067651213E0,-1.185197234E-1,2.600036860E0,5.165904164E-1
8.072709078E0,-1.621955335E-1,2.605363369E0,5.474830270E-1
8.077766890E0,-2.005450130E-1,2.568078995E0,5.746472478E-1
8.082819338E0,-2.330355346E-1,2.526533842E0,5.943546295E-1
8.087877150E0,-2.543408275E-1,2.505228519E0,6.124641299E-1
8.092935015E0,-2.889618874E-1,2.496173620E0,6.380304098E-1
8.097992828E0,-3.539429605E-1,2.486586571E0,6.737167239E-1
8.103050692E0,-4.535450935E-1,2.471139908E0,7.195230722E-1
8.108108505E0,-5.744524598E-1,2.463150740E0,7.626662850E-1
8.113171525E0,-6.889683008E-1,2.486586571E0,8.020809889E-1
8.118229338E0,-7.848420143E-1,2.554763317E0,8.324409723E-1
8.123287150E0,-8.482251763E-1,2.661822319E0,8.500178456E-1
8.128344963E0,-8.828462362E-1,2.804567575E0,8.564094305E-1
8.133402828E0,-8.993577957E-1,2.967552900E0,8.473547101E-1
8.138460692E0,-9.169346690E-1,3.132668734E0,8.249841332E-1
8.143505848E0,-9.435662627E-1,3.288729906E0,7.898304462E-1
8.148563713E0,-1.000025272E0,3.435203552E0,7.498830557E-1
8.153621525E0,-1.068734765E0,3.547056198E0,7.072725296E-1
8.158679338E0,-1.131585240E0,3.596058369E0,6.593357325E-1
8.163737203E0,-1.187511563E0,3.587003469E0,6.028767228E-1
8.168795015E0,-1.217338920E0,3.536403656E0,5.245798230E-1
8.173859755E0,-1.220002174E0,3.453313112E0,4.228471816E-1
8.178917567E0,-1.196033716E0,3.341993093E0,3.115271330E-1
8.183975380E0,-1.157151580E0,3.211498260E0,2.081965953E-1
8.189033244E0,-1.118269444E0,3.066089630E0,1.277692020E-1
8.194091057E0,-1.087909460E0,2.914822340E0,7.184287161E-2
8.199148921E0,-1.070332646E0,2.768881321E0,5.479865521E-2
8.204204598E0,-1.052223086E0,2.637321234E0,6.917971373E-2
8.209262411E0,-1.021863103E0,2.538251877E0,9.847446531E-2
8.214320223E0,-9.989600182E-1,2.484455824E0,1.224428937E-1
8.219378088E0,-9.749915600E-1,2.453563452E0,1.219102591E-1
8.224435900E0,-9.456968307E-1,2.448769569E0,1.027355194E-1
8.229493713E0,-8.998904824E-1,2.473803282E0,7.929971814E-2
8.234533348E0,-8.269199133E-1,2.486053705E0,6.012497097E-2
8.239591161E0,-7.464925051E-1,2.448769569E0,5.160286650E-2
8.244648973E0,-6.926966906E-1,2.364081144E0,5.160286650E-2
8.249706838E0,-6.884356141E-1,2.227194786E0,7.557129860E-2
8.254764703E0,-7.326440811E-1,2.039175749E0,1.272365749E-1
8.259822463E0,-8.040167689E-1,1.816535592E0,2.023376524E-1
8.264893400E0,-8.833788633E-1,1.577383995E0,3.211145103E-1
8.269951265E0,-9.701978564E-1,1.362200737E0,4.681209028E-1
8.275009078E0,-1.069267273E0,1.201878667E0,6.140619516E-1
8.280066890E0,-1.171532631E0,1.103874326E0,7.450894117E-1
8.285124755E0,-1.265275836E0,1.048480749E0,8.654642105E-1
8.290182619E0,-1.339844346E0,1.003739595E0,9.650663137E-1
8.295234963E0,-1.385118008E0,9.696511030E-1,1.032178044E0
8.300292775E0,-1.386183143E0,9.765753746E-1,1.066266418E0
8.305350588E0,-1.344637990E0,1.038893342E0,1.061472654E0
8.310408453E0,-1.257286310E0,1.128908038E0,1.028982162E0
8.315466265E0,-1.128922105E0,1.220520735E0,9.863715768E-1
8.320524130E0,-9.808505177E-1,1.307872295E0,9.224557877E-1
8.325596682E0,-8.381052017E-1,1.401082873E0,8.580073118E-1
8.330654546E0,-7.150672078E-1,1.521990299E0,7.908957601E-1
8.335712359E0,-6.138672233E-1,1.654083014E0,7.301757336E-1
8.340770223E0,-5.323745608E-1,1.774990320E0,6.870325208E-1
8.345828036E0,-4.673935175E-1,1.869266272E0,6.556072235E-1
8.350885848E0,-4.130651057E-1,1.916670442E0,6.327041388E-1
8.355945067E0,-3.672587574E-1,1.912409425E0,6.098009348E-1
8.361002880E0,-3.235829473E-1,1.862874627E0,5.810388327E-1
8.366060692E0,-2.793745100E-1,1.780849338E0,5.490809679E-1
8.371118557E0,-2.420902848E-1,1.684975624E0,5.165904164E-1
8.376176369E0,-2.000123709E-1,1.588569283E0,4.803714156E-1
8.381234234E0,-1.574018449E-1,1.502815485E0,4.473482370E-1
8.386291005E0,-1.105302498E-1,1.431975603E0,4.239124656E-1
8.391348817E0,-7.005023956E-2,1.392028213E0,4.132598042E-1
8.396406630E0,-2.158073895E-2,1.370722890E0,4.233798385E-1
8.401464494E0,3.541085497E-2,1.336101770E0,4.425545931E-1
8.406522307E0,1.035877168E-1,1.271653414E0,4.665229917E-1
8.411580171E0,1.770909131E-1,1.188562870E0,5.112640262E-1
8.416634442E0,2.628445923E-1,1.106537580E0,5.826367140E-1
8.421692359E0,3.677730560E-1,1.037295341E0,6.710535884E-1
8.426750223E0,4.753646851E-1,9.904237390E-1,7.546767592E-1
8.431808088E0,5.872173905E-1,9.707164168E-1,8.217884302E-1
8.436865900E0,6.985374689E-1,9.781731963E-1,8.659968376E-1
8.441923765E0,8.066617250E-1,1.008000612E0,8.888999820E-1
8.446988140E0,9.078617096E-1,1.062329054E0,8.963568211E-1
8.452046057E0,1.002670169E0,1.134767056E0,8.873021007E-1
8.457103869E0,1.089489222E0,1.200280786E0,8.734536767E-1
8.462161786E0,1.161926985E0,1.256206989E0,8.617357612E-1
8.467219650E0,1.225310206E0,1.299350142E0,8.606705070E-1
8.472277463E0,1.270583868E0,1.325449228E0,8.718557954E-1
8.477327932E0,1.299346089E0,1.328644991E0,8.862368464E-1
8.482385796E0,1.314792395E0,1.314263940E0,9.107378721E-1
8.487443609E0,1.324379802E0,1.287099719E0,9.389673471E-1
8.492501525E0,1.325444937E0,1.258337617E0,9.687947631E-1
8.497559338E0,1.321716547E0,1.238097668E0,9.975568652E-1
8.502617255E0,1.308400750E0,1.226379752E0,1.020992637E0
8.507679859E0,1.289226055E0,1.225847006E0,1.028449655E0
8.512737723E0,1.263659716E0,1.237032294E0,1.028449655E0
8.517795536E0,1.234897614E0,1.261000752E0,1.009274840E0
8.522853453E0,1.197080731E0,1.300948143E0,9.730557799E-1
8.527911265E0,1.158731222E0,1.349950314E0,9.240536690E-1
8.532969182E0,1.120914459E0,1.408539772E0,8.622683883E-1
8.538015640E0,1.083630204E0,1.477249265E0,7.876999378E-1
8.543073557E0,1.055933356E0,1.557676673E0,7.125989199E-1
8.548131369E0,1.036758542E0,1.649289250E0,6.369651556E-1
8.553189234E0,1.031432271E0,1.766468287E0,5.560051203E-1
8.558247098E0,1.036758542E0,1.907083154E0,4.686535299E-1
8.563304963E0,1.052737594E0,2.057817936E0,3.663882315E-1
8.568371057E0,1.080967069E0,2.204291582E0,2.556008399E-1
8.573428973E0,1.117185950E0,2.326264381E0,1.368239373E-1
8.578486786E0,1.159796596E0,2.411485434E0,1.538390294E-2
8.583544703E0,1.210929275E0,2.449834824E0,-1.033929735E-1
8.588602515E0,1.264724970E0,2.461552858E0,-2.104519606E-1
8.593660380E0,1.313194513E0,2.464748383E0,-3.068583310E-1
8.598752775E0,1.360598683E0,2.474335909E0,-3.931446671E-1
8.603810640E0,1.412263989E0,2.488184452E0,-4.623867869E-1
8.608868505E0,1.470320821E0,2.498836994E0,-5.204436779E-1
8.613926369E0,1.532106161E0,2.490847588E0,-5.699783564E-1
8.618984234E0,1.596022010E0,2.442910433E0,-6.040668488E-1
8.624042046E0,1.654078722E0,2.353960991E0,-6.253721118E-1
8.629109650E0,1.699352503E0,2.226662159E0,-6.306983829E-1
8.634167463E0,1.733440995E0,2.075394630E0,-6.179152727E-1
8.639225275E0,1.752083063E0,1.916670442E0,-5.832941532E-1
8.644283140E0,1.761670470E0,1.754750371E0,-5.390857458E-1
8.649341005E0,1.765398860E0,1.601885080E0,-4.831594229E-1
8.654398869E0,1.759007215E0,1.455943942E0,-4.197762311E-1
8.659427723E0,1.737701893E0,1.320122957E0,-3.595888615E-1
8.664485640E0,1.712668300E0,1.192823887E0,-3.015320003E-1
8.669543505E0,1.687634587E0,1.082569122E0,-2.525298893E-1
8.674601317E0,1.654611468E0,9.941522479E-1,-2.056582868E-1
8.679659182E0,1.614664078E0,9.424869418E-1,-1.587866843E-1
8.684717046E0,1.566194654E0,9.147900343E-1,-1.092519239E-1
8.689746734E0,1.507072449E0,8.929521441E-1,-6.024980173E-2
8.694804598E0,1.438895583E0,8.689837456E-1,-1.657400280E-2
8.699862463E0,1.369120836E0,8.311668634E-1,2.443864383E-2
8.704920328E0,1.297748208E0,7.821646929E-1,6.012497097E-2
8.709978192E0,1.230103970E0,7.427499890E-1,9.314814955E-2
8.715036005E0,1.173112392E0,7.257058024E-1,1.251060367E-1
8.720087828E0,1.119849205E0,7.331626415E-1,1.650534123E-1
8.725145640E0,1.071379662E0,7.768384218E-1,2.034029067E-1
8.730203505E0,1.029301763E0,8.530047536E-1,2.401544899E-1
8.735261369E0,9.920175672E-1,9.526069164E-1,2.753082216E-1
8.740319234E0,9.573964477E-1,1.066057444E0,3.046029508E-1
8.745377098E0,9.281017184E-1,1.182171226E0,3.253755867E-1
8.750448036E0,9.036006927E-1,1.295621753E0,3.461481929E-1
8.755505848E0,8.743059635E-1,1.405876517E0,3.674535155E-1
8.760563713E0,8.380869627E-1,1.497489214E0,3.850303590E-1
8.765621578E0,8.029332757E-1,1.565133572E0,3.988787532E-1
8.770679442E0,7.587248087E-1,1.599221945E0,4.116619527E-1
8.775737307E0,7.081247568E-1,1.597624063E0,4.228471816E-1
8.780815328E0,6.569921374E-1,1.558741927E0,4.292387962E-1
8.785873140E0,6.095879078E-1,1.478847146E0,4.287061393E-1
8.790931005E0,5.669773817E-1,1.352613330E0,4.228471816E-1
8.795988869E0,5.355520844E-1,1.186964989E0,3.999440074E-1
8.801046734E0,5.179752707E-1,9.962827563E-1,3.653229475E-1
8.806104546E0,5.201057792E-1,7.944152951E-1,3.227124214E-1
8.811145171E0,5.318236947E-1,6.047983766E-1,2.811671495E-1
8.816202984E0,5.504657626E-1,4.519330561E-1,2.449481785E-1
8.821260900E0,5.712384582E-1,3.358193040E-1,2.156534344E-1
8.826318713E0,5.861521363E-1,2.521961629E-1,2.002071142E-1
8.831376578E0,6.005331874E-1,1.952045411E-1,1.879565865E-1
8.836434442E0,6.117184758E-1,1.568550766E-1,1.757060587E-1
8.841506525E0,6.218384504E-1,1.296908408E-1,1.544007808E-1
8.846564390E0,6.213058233E-1,9.027608484E-2,1.245734170E-1
8.851622203E0,6.095879078E-1,3.275185823E-2,8.622393012E-2
8.856680067E0,5.792279243E-1,-3.382711112E-2,4.254812375E-2
8.861737932E0,5.360847712E-1,-1.046671420E-1,-4.323471803E-3
8.866795796E0,4.849520624E-1,-1.504734606E-1,-5.332559347E-2
8.871852046E0,4.588530958E-1,-1.483429223E-1,-1.065887585E-1
8.876909859E0,4.663099349E-1,-8.442713320E-2,-1.614498496E-1
8.881967723E0,4.950720370E-1,2.795817330E-2,-2.189740837E-1
8.887025588E0,5.312910676E-1,1.648445427E-1,-2.764983177E-1
8.892083453E0,5.733689666E-1,3.001330197E-1,-3.281635940E-1
8.897141317E0,6.159794927E-1,4.023982882E-1,-3.617193699E-1
8.902196369E0,6.596552730E-1,4.641835690E-1,-3.803614974E-1
8.907254182E0,6.969395280E-1,4.865541160E-1,-3.787635863E-1
8.912312046E0,7.214405537E-1,4.593898952E-1,-3.617193699E-1
8.917369911E0,7.267669439E-1,3.784298897E-1,-3.276309371E-1
8.922427775E0,7.177121639E-1,2.543266714E-1,-2.828898728E-1
8.927485640E0,6.958742738E-1,8.122134209E-2,-2.354856580E-1
8.932542411E0,6.788300276E-1,-1.206460893E-1,-1.763635278E-1
8.937600223E0,6.633837819E-1,-3.182524443E-1,-1.012624428E-1
8.942658088E0,6.436763406E-1,-4.732483029E-1,-8.584526367E-3
8.947715953E0,6.367521882E-1,-5.504799485E-1,8.728919923E-2
8.952773817E0,6.426110864E-1,-5.291746259E-1,1.773039550E-1
8.957831630E0,6.474047899E-1,-4.151914418E-1,2.508071363E-1
8.962890432E0,6.447415948E-1,-2.394229621E-1,3.093966246E-1
8.967948296E0,6.207731962E-1,-2.903342433E-2,3.472134769E-1
8.973006109E0,5.765647888E-1,1.866824478E-1,3.653229475E-1
8.978063973E0,5.078552961E-1,3.747014701E-1,3.583987653E-1
8.983121838E0,4.002636075E-1,5.105225444E-1,3.264408410E-1
8.988179650E0,2.623119950E-1,5.749710202E-1,2.731776536E-1
8.993242150E0,1.190340370E-1,5.813626051E-1,2.108597606E-1
8.998299963E0,-1.305863168E-2,5.643183589E-1,1.432155222E-1
9.003357828E0,-1.281070858E-1,5.520678759E-1,6.172286719E-2
9.008415640E0,-2.122629136E-1,5.685793757E-1,-3.894453496E-2
9.013473557E0,-2.623303235E-1,6.079941988E-1,-1.502645761E-1
9.018531369E0,-2.873640060E-1,6.532678604E-1,-2.722372711E-1
9.023587880E0,-3.012124300E-1,6.841605306E-1,-3.952752054E-1
9.028645692E0,-3.054734766E-1,6.644530892E-1,-5.071278811E-1
9.033703557E0,-3.044081926E-1,5.829604864E-1,-5.992731452E-1
9.038761369E0,-2.990819216E-1,4.572593868E-1,-6.615910530E-1
9.043819286E0,-2.862987518E-1,3.161119521E-1,-6.940816045E-1
9.048877150E0,-2.788418829E-1,1.749645323E-1,-6.972773671E-1
9.053929598E0,-2.665913701E-1,3.115396388E-2,-6.887552738E-1
9.058987463E0,-2.447534353E-1,-1.004060879E-1,-6.765047312E-1
9.064045275E0,-2.090671211E-1,-2.037366331E-1,-6.711784601E-1
9.069103140E0,-1.595323682E-1,-2.559345365E-1,-6.765047312E-1
9.074161005E0,-9.987761825E-2,-2.511408627E-1,-6.930163503E-1
9.079218869E0,-3.969021887E-2,-1.978776902E-1,-7.180500627E-1
9.084271109E0,1.676874608E-2,-1.179829240E-1,-7.473447919E-1
9.089328921E0,6.470559537E-2,-5.246922374E-2,-7.793026567E-1
9.094386786E0,9.985928982E-2,-2.157657966E-2,-8.091300726E-1
9.099444650E0,1.254256219E-1,-9.858680889E-3,-8.309679627E-1
9.104502515E0,1.360782683E-1,3.989744931E-3,-8.437511325E-1
9.109560380E0,1.398066878E-1,4.873081297E-2,-8.506753445E-1
9.114619755E0,1.477961540E-1,1.248971522E-1,-8.522732258E-1
9.119677567E0,1.547203660E-1,2.191729695E-1,-8.517405987E-1
9.124735432E0,1.563182622E-1,3.187751174E-1,-8.544037342E-1
9.129793296E0,1.435351074E-1,3.965393603E-1,-8.490774632E-1
9.134851109E0,1.286214143E-1,4.407477975E-1,-8.384248018E-1
9.139909025E0,1.105119288E-1,4.577920139E-1,-8.128585219E-1
9.144971630E0,8.547823131E-2,4.641835690E-1,-7.761068344E-1
9.150029494E0,5.884665623E-2,4.753688574E-1,-7.287026644E-1
9.155087411E0,3.381296247E-2,5.041309595E-1,-6.727763414E-1
9.160145223E0,1.037716400E-2,5.414152145E-1,-6.051320434E-1
9.165203088E0,-4.536524415E-3,5.866888762E-1,-5.401510596E-1
9.170260953E0,-9.862841107E-3,6.394194365E-1,-4.773004651E-1
9.175338765E0,-1.305863168E-2,6.953457594E-1,-4.203088880E-1
9.180396630E0,-1.199336816E-2,7.496742010E-1,-3.755677938E-1
9.185454494E0,-4.003892653E-3,8.029373884E-1,-3.398814797E-1
9.190512359E0,6.116110831E-3,8.572657704E-1,-3.185762167E-1
9.195570223E0,1.996453665E-2,8.993437290E-1,-3.153804243E-1
9.200628036E0,3.168243542E-2,9.259753227E-1,-3.233698905E-1
9.205664963E0,4.499822855E-2,9.313015938E-1,-3.457404375E-1
9.210722775E0,6.204244494E-2,9.147900343E-1,-3.803614974E-1
9.215780640E0,7.642349601E-2,8.732448220E-1,-4.155151844E-1
9.220838505E0,8.121718466E-2,8.024047613E-1,-4.490709901E-1
9.225896369E0,8.601087332E-2,7.171837091E-1,-4.799636304E-1
9.230954234E0,9.186981618E-2,6.271689534E-1,-4.975404739E-1
9.236003036E0,9.346771240E-2,5.424804688E-1,-5.023341775E-1
9.241060848E0,9.879402816E-2,4.695098996E-1,-5.002036095E-1
9.246118713E0,1.025224552E-1,4.146488309E-1,-4.916815460E-1
9.251176578E0,1.046529785E-1,3.842888176E-1,-4.826267958E-1
9.256234390E0,1.041203439E-1,3.731035590E-1,-4.773004651E-1
9.261292307E0,1.062508747E-1,3.789625168E-1,-4.639846683E-1
9.266363765E0,1.067835093E-1,3.917456865E-1,-4.410814941E-1
9.271421578E0,1.041203439E-1,4.157140851E-1,-4.149825573E-1
9.276479442E0,9.346771240E-2,4.524656832E-1,-3.851551712E-1
9.281537307E0,7.162981480E-2,4.982720017E-1,-3.494688570E-1
9.286595171E0,4.446559772E-2,5.563288927E-1,-3.175109327E-1
9.291653036E0,8.779269643E-3,6.090594530E-1,-2.828898728E-1
9.296702932E0,-2.743969113E-2,6.388868093E-1,-2.429425120E-1
9.301760744E0,-7.164813578E-2,6.447457671E-1,-1.982014328E-1
9.306818609E0,-1.233134046E-1,6.415499449E-1,-1.534603536E-1
9.311876473E0,-1.819029003E-1,6.356910467E-1,-1.209698170E-1
9.316934338E0,-2.362313420E-1,6.378214955E-1,-1.028603390E-1
9.321992203E0,-2.831029296E-1,6.553983688E-1,-1.044582352E-1
9.327027880E0,-3.209198117E-1,7.017373443E-1,-1.257635057E-1
9.332085744E0,-3.422250748E-1,7.693815827E-1,-1.571887881E-1
9.337143609E0,-3.576713800E-1,8.466132283E-1,-1.870161593E-1
9.342201473E0,-3.667261302E-1,9.249100685E-1,-2.115172297E-1
9.347259286E0,-3.715198040E-1,9.904237390E-1,-2.253656536E-1
9.352317150E0,-3.715198040E-1,1.041023731E0,-2.296267152E-1
9.357375536E0,-3.672587574E-1,1.084699631E0,-2.344203889E-1
9.362433400E0,-3.496819139E-1,1.118255496E0,-2.376161814E-1
9.367491265E0,-3.315724432E-1,1.148082852E0,-2.429425120E-1
9.372549130E0,-3.044081926E-1,1.161398649E0,-2.434751242E-1
9.377606942E0,-2.692545056E-1,1.150745988E0,-2.466709167E-1
9.382664807E0,-2.309050113E-1,1.119320631E0,-2.434751242E-1
9.387731005E0,-1.920229048E-1,1.058600664E0,-2.370835394E-1
9.392788869E0,-1.579344571E-1,9.712489843E-1,-2.317572385E-1
9.397846734E0,-1.318355054E-1,8.498089910E-1,-2.285614461E-1
9.402904598E0,-1.163892001E-1,7.283689380E-1,-2.312245965E-1
9.407962411E0,-1.105302498E-1,6.223752499E-1,-2.354856580E-1
9.413020275E0,-1.078670919E-1,5.387520790E-1,-2.333551347E-1
9.418070275E0,-1.004102454E-1,4.860214889E-1,-2.264309078E-1
9.423128036E0,-9.561656415E-2,4.689772725E-1,-2.243003845E-1
9.428185796E0,-8.656182140E-2,4.870867431E-1,-2.195066959E-1
9.433243609E0,-8.815971762E-2,5.259688497E-1,-2.115172297E-1
9.438301369E0,-8.762708306E-2,5.653836131E-1,-1.971361637E-1
9.443359130E0,-8.869234473E-2,5.914825797E-1,-1.779614240E-1
9.448440015E0,-9.295339882E-2,5.994720459E-1,-1.651782691E-1
9.453497828E0,-9.827971458E-2,5.898846984E-1,-1.534603536E-1
9.458555588E0,-1.020081416E-1,5.648509860E-1,-1.433403641E-1
9.463613348E0,-9.668182582E-2,5.350236297E-1,-1.348182559E-1
9.468671161E0,-8.602919430E-2,4.982720017E-1,-1.294919252E-1
9.473728921E0,-6.738708168E-2,4.673793912E-1,-1.252308786E-1
9.478787359E0,-3.809232265E-2,4.482046366E-1,-1.225677133E-1
9.483845171E0,-3.471261123E-3,4.492699206E-1,-1.225677133E-1
9.488902932E0,2.635611780E-2,4.641835690E-1,-1.183066666E-1
9.493960692E0,5.085717887E-2,4.934783578E-1,-1.183066666E-1
9.499018505E0,6.417296827E-2,5.334256887E-1,-1.188392937E-1
9.504076265E0,7.961928844E-2,5.920152068E-1,-1.167087629E-1
9.509134859E0,9.293507785E-2,6.607246995E-1,-1.199045554E-1
9.514192671E0,1.041203439E-1,7.379562855E-1,-1.332203597E-1
9.519250432E0,1.035877168E-1,8.071984053E-1,-1.433403641E-1
9.524308192E0,9.559823573E-2,8.546026349E-1,-1.342856139E-1
9.529366005E0,8.015191555E-2,8.636574149E-1,-1.135129780E-1
9.534423765E0,4.126980901E-2,8.583310843E-1,-1.097845584E-1
9.539481109E0,-5.069156177E-3,8.269057870E-1,-1.156435013E-1
9.544538921E0,-3.862495348E-2,7.576636672E-1,-1.129803509E-1
9.549596682E0,-6.312602013E-2,6.825625896E-1,-1.044582352E-1
9.554654442E0,-7.910497487E-2,6.282341480E-1,-9.646876156E-2
9.559712255E0,-8.602919430E-2,5.845583081E-1,-9.060981125E-2
9.564770015E0,-8.602919430E-2,5.595246553E-1,-8.901191503E-2
9.569829390E0,-8.443129063E-2,5.568615198E-1,-9.167507291E-2
9.574887203E0,-7.377865911E-2,5.669814944E-1,-9.007718414E-2
9.579944963E0,-5.620180070E-2,5.930804610E-1,-9.593612701E-2
9.585002775E0,-3.596179560E-2,6.330278516E-1,-1.001971811E-1
9.590060536E0,-1.572179049E-2,6.830952764E-1,-1.001971811E-1
9.595118296E0,-2.754705492E-4,7.384889126E-1,-1.023277044E-1
9.600176525E0,7.714006118E-3,7.885563374E-1,-9.966455400E-2
9.605234338E0,8.779269643E-3,8.301016092E-1,-9.220770746E-2
9.610292098E0,-5.069156177E-3,8.476784229E-1,-7.409822941E-2
9.615349911E0,-2.584179491E-2,8.391563296E-1,-5.705401301E-2
9.620407671E0,-4.075548425E-2,8.066658378E-1,-3.308558464E-2
9.625465432E0,-6.152812392E-2,7.539352775E-1,-1.231294870E-2
9.630523973E0,-7.058287412E-2,6.990742087E-1,7.927059196E-3
9.635581786E0,-7.697445154E-2,6.484741569E-1,2.763443254E-2
9.640639546E0,-8.123550564E-2,6.154510379E-1,4.308075458E-2
9.645697307E0,-8.230076730E-2,6.010699272E-1,5.746181309E-2
9.650755119E0,-7.910497487E-2,6.032004952E-1,6.864708662E-2
9.655812880E0,-7.324602455E-2,6.229078174E-1,6.864708662E-2
9.660870848E0,-5.513653904E-2,6.532678604E-1,6.332075596E-2
9.665928609E0,-3.063547984E-2,6.980089545E-1,5.479865521E-2
9.670986421E0,-8.081023116E-4,7.550005317E-1,4.095022753E-2
9.676044182E0,2.901927754E-2,8.125247359E-1,2.656917088E-2
9.681101994E0,5.884665623E-2,8.625921607E-1,2.017758787E-2
9.686159755E0,8.015191555E-2,8.897563219E-1,1.485127117E-2
9.691216213E0,9.772876650E-2,8.913542032E-1,1.325337589E-2
9.696274025E0,1.073161364E-1,8.711142540E-1,1.272074319E-2
9.701331786E0,1.073161364E-1,8.311668634E-1,1.538390294E-2
9.706389546E0,9.772876650E-2,7.581963539E-1,1.911232434E-2
9.711447359E0,8.174981922E-2,6.633878350E-1,1.964495704E-2
9.716505119E0,6.310770661E-2,5.557962656E-1,1.698179729E-2
9.721565640E0,5.618349835E-2,4.407477975E-1,1.751442999E-2
9.726623453E0,5.032454431E-2,3.517982960E-1,1.644916646E-2
9.731681213E0,5.138981342E-2,3.049266934E-1,8.992321789E-3
9.736738973E0,7.003191113E-2,2.980024815E-1,-2.192944754E-3
9.741796786E0,1.099792942E-1,3.352867067E-1,-2.669400536E-2
9.746854546E0,1.696340591E-1,4.114530385E-1,-5.172769725E-2
9.751915119E0,2.271582931E-1,5.073267817E-1,-8.315296471E-2
9.756972932E0,2.729645967E-1,6.101246476E-1,-1.135129780E-1
9.762030692E0,3.022593260E-1,6.948131323E-1,-1.390793025E-1
9.767088453E0,3.081183136E-1,7.459458113E-1,-1.587866843E-1
9.772146265E0,3.006614745E-1,7.544679046E-1,-1.646456271E-1
9.777204025E0,2.729645967E-1,7.278363109E-1,-1.768961698E-1
9.782237984E0,2.340825051E-1,6.692467928E-1,-1.950056404E-1
9.787295744E0,1.909393370E-1,5.962762833E-1,-2.088540643E-1
9.792353505E0,1.541877389E-1,5.280994177E-1,-2.168435305E-1
9.797411317E0,1.169035137E-1,4.956088662E-1,-2.237677574E-1
9.802469078E0,9.027191997E-2,5.035983324E-1,-2.248330265E-1
9.807526838E0,7.109717280E-2,5.360888243E-1,-2.248330265E-1
9.812607932E0,4.286770150E-2,5.850909948E-1,-2.157782763E-1
9.817665744E0,-2.754705492E-4,6.447457671E-1,-2.035277635E-1
9.822723505E0,-6.152812392E-2,7.017373443E-1,-1.880814284E-1
9.827781317E0,-1.355639398E-1,7.464784384E-1,-1.635803729E-1
9.832839078E0,-2.266439646E-1,8.050678968E-1,-1.502645761E-1
9.837896838E0,-3.273113668E-1,8.647226095E-1,-1.539929956E-1
9.842955640E0,-4.290440381E-1,9.206489921E-1,-1.502645761E-1
9.848013453E0,-5.302440524E-1,1.001609087E0,-1.401445717E-1
9.853071213E0,-6.378356814E-1,1.103341818E0,-1.337529868E-1
9.858128973E0,-7.353072166E-1,1.207737565E0,-1.353508979E-1
9.863186786E0,-8.301156759E-1,1.298285007E0,-1.406771988E-1
9.868244546E0,-9.334462881E-1,1.374984026E0,-1.422750950E-1
9.873302411E0,-1.047429442E0,1.445823908E0,-1.364161521E-1
9.878360223E0,-1.172597885E0,1.507076621E0,-1.257635057E-1
9.883417984E0,-1.309484243E0,1.567263961E0,-1.103171855E-1
9.888475744E0,-1.447435856E0,1.633310437E0,-9.859929234E-2
9.893533557E0,-1.581659198E0,1.704150319E0,-9.646876156E-2
9.898591317E0,-1.717480183E0,1.778186083E0,-1.145782396E-1
9.903650432E0,-1.854899168E0,1.853819966E0,-1.438729912E-1
9.908708244E0,-1.990720272E0,1.917735696E0,-1.752982587E-1
9.913766005E0,-2.122280598E0,1.964607239E0,-2.072561681E-1
9.918823765E0,-2.252242565E0,1.985379934E0,-2.216372192E-1
9.923881578E0,-2.382204771E0,1.986977935E0,-2.045930177E-1
9.928939338E0,-2.507905960E0,1.986445189E0,-1.630477309E-1
9.933976786E0,-2.620291233E0,2.000826359E0,-8.688138425E-2
9.939034546E0,-2.717762947E0,2.033849478E0,1.005758531E-2
9.944092307E0,-2.785407305E0,2.087645054E0,1.171165779E-1
9.949150119E0,-2.822691441E0,2.162746191E0,2.268387079E-1
9.954207880E0,-2.833876610E0,2.253293753E0,3.328324556E-1
9.959265640E0,-2.822158575E0,2.335851669E0,4.196514189E-1
9.964341369E0,-2.784341812E0,2.377396822E0,4.718493223E-1
9.969399182E0,-2.722023964E0,2.337449551E0,4.936872125E-1
9.974456942E0,-2.658108234E0,2.208552599E0,5.165904164E-1
9.979514703E0,-2.618160963E0,2.026925325E0,5.677230358E-1
9.984572463E0,-2.596855402E0,1.792034626E0,6.593357325E-1
9.989630275E0,-2.596322775E0,1.487369299E0,7.791777849E-1
9.994667619E0,-2.614964962E0,1.131038547E0,9.107378721E-1
9.999725432E0,-2.647988081E0,7.683163285E-1,1.033775926E0
1.000478324E1,-2.683674574E0,4.599225223E-1,1.140834808E0
1.000984100E1,-2.695392370E0,2.239666581E-1,1.226055980E0
1.001489876E1,-2.675152302E0,4.180660099E-2,1.281982303E0
1.001995653E1,-2.626682758E0,-8.762291819E-2,1.305950642E0
1.002504965E1,-2.554777622E0,-1.531366110E-1,1.289439082E0
1.003010741E1,-2.449849129E0,-1.600608379E-1,1.244698048E0
1.003516522E1,-2.299114227E0,-1.179829240E-1,1.192500114E0
1.004022298E1,-2.107366800E0,-4.128395766E-2,1.134975910E0
1.004528074E1,-1.887389779E0,8.175397664E-2,1.077451706E0
1.005033851E1,-1.667945385E0,2.500656247E-1,1.033243299E0
1.005536850E1,-1.464480042E0,4.146488309E-1,1.001285315E0
1.006042632E1,-1.277526379E0,5.083920360E-1,9.799799919E-1
1.006548408E1,-1.115073681E0,4.822930694E-1,9.842410684E-1
1.007054189E1,-9.755241275E-1,3.411456347E-1,1.019394875E0
1.007559965E1,-8.737914562E-1,1.307560951E-1,1.072657943E0
1.008065741E1,-8.061472774E-1,-1.020039767E-1,1.124855876E0
1.008571757E1,-7.640693784E-1,-3.022735119E-1,1.154683232E0
1.009077538E1,-7.342419624E-1,-4.641935527E-1,1.155748606E0
1.009583314E1,-6.958925128E-1,-6.005473137E-1,1.141367435E0
1.010089090E1,-6.309114099E-1,-7.054757476E-1,1.120594859E0
1.010594866E1,-5.414292812E-1,-7.752504945E-1,1.098224401E0
1.011100647E1,-4.306419492E-1,-8.285136819E-1,1.075321198E0
1.011608934E1,-2.985492647E-1,-8.849726915E-1,1.057211637E0
1.012114715E1,-1.589997262E-1,-9.446274042E-1,1.050820112E0
1.012620491E1,-2.743969113E-2,-9.941622019E-1,1.062005401E0
1.013126267E1,8.920665830E-2,-1.037305355E0,1.095561147E0
1.013632048E1,1.749603748E-1,-1.066067457E0,1.144030690E0
1.014137824E1,2.276909202E-1,-1.078317881E0,1.204218030E0
1.014642595E1,2.489961833E-1,-1.070328355E0,1.271329641E0
1.015148371E1,2.452677786E-1,-1.031446338E0,1.330984354E0
1.015654147E1,2.330172360E-1,-9.515516162E-1,1.378921270E0
1.016159929E1,2.367456704E-1,-8.333073854E-1,1.409813881E0
1.016665705E1,2.687035501E-1,-6.724525690E-1,1.414607525E0
1.017171481E1,3.416740894E-1,-4.647261798E-1,1.394367576E0
1.017677147E1,4.508636296E-1,-2.053345293E-1,1.344832778E0
1.018182923E1,5.930763483E-1,9.879819304E-2,1.270264387E0
1.018688699E1,7.374196053E-1,4.396825433E-1,1.176521182E0
1.019194481E1,8.668490648E-1,7.757731676E-1,1.075321198E0
1.019700257E1,9.691143632E-1,1.072981834E0,9.709252715E-1
1.020206033E1,1.035160661E0,1.293491364E0,8.585399985E-1
1.020710533E1,1.068183899E0,1.419724941E0,7.568073273E-1
1.021216309E1,1.079901814E0,1.458607197E0,6.747819781E-1
1.021722085E1,1.084162831E0,1.429845095E0,6.082029939E-1
1.022227866E1,1.086293340E0,1.356874466E0,5.512114167E-1
1.022733642E1,1.079369187E0,1.271120667E0,4.936872125E-1
1.023239418E1,1.062325001E0,1.181638598E0,4.324345589E-1
1.023746673E1,1.046878576E0,1.093754411E0,3.669208586E-1
1.024252449E1,1.022910237E0,1.010131240E0,3.030050397E-1
