,Acceleration x (m/s^2),Acceleration y (m/s^2),Acceleration z (m/s^2)
2/8/16 18:28,2.217249393,3.143570662,8.867202759
2/8/16 18:28,2.186142683,3.16032052,8.862417221
2/8/16 18:28,2.135893345,3.191427231,8.850452423
2/8/16 18:28,2.080858469,3.189034462,8.860024452
2/8/16 18:28,2.0330019,3.210569859,8.869595528
2/8/16 18:28,1.918146491,3.234498024,8.91505909
2/8/16 18:28,1.85593307,3.260818958,8.948558807
2/8/16 18:28,1.85593307,3.260818958,8.948558807
2/8/16 18:28,1.80807662,3.270390272,8.991629601
2/8/16 18:28,1.75034976,3.284747362,9.001200676
2/8/16 18:28,1.692921996,3.299104214,9.039784431
2/8/16 18:28,1.6713866,3.318246841,9.073284149
2/8/16 18:28,1.657029629,3.32063961,9.07089138
2/8/16 18:28,1.666600943,3.330210924,9.073284149
2/8/16 18:28,1.678565025,3.339782238,9.092427254
2/8/16 18:28,1.690529227,3.330210924,9.09960556
2/8/16 18:28,1.721635938,3.318246841,9.104391098
2/8/16 18:28,1.728814363,3.275176048,9.104391098
2/8/16 18:28,1.786242127,3.258426189,9.104391098
2/8/16 18:28,1.829612017,3.244069338,9.130712509
2/8/16 18:28,1.889432549,3.239283562,9.104391098
2/8/16 18:28,1.913360834,3.212962627,9.106783867
2/8/16 18:28,1.973181367,3.177070379,9.130712509
2/8/16 18:28,2.018645048,3.169891834,9.123533249
2/8/16 18:28,2.080858469,3.167499065,9.147461891
2/8/16 18:28,2.131107569,3.157927752,9.137890816
2/8/16 18:28,2.171785593,3.145963669,9.140283585
2/8/16 18:28,2.217249393,3.133999348,9.145069122
2/8/16 18:28,2.267498493,3.126821041,9.154640198
2/8/16 18:28,2.310569286,3.122035265,9.164211273
2/8/16 18:28,2.341675997,3.112463951,9.166604042
2/8/16 18:28,2.385046005,3.100499868,9.171390533
2/8/16 18:28,2.42572403,3.107678413,9.183354378
2/8/16 18:28,2.444866419,3.081357241,9.212067604
2/8/16 18:28,2.440080881,3.088535786,9.240781784
2/8/16 18:28,2.447259426,3.093321562,9.214461327
2/8/16 18:28,2.466402054,3.083750248,9.233603477
2/8/16 18:28,2.45683074,3.069393158,9.250352859
2/8/16 18:28,2.478366137,3.057429075,9.307781219
2/8/16 18:28,2.466402054,3.031108141,9.302995682
2/8/16 18:28,2.464009047,3.016751051,9.343673706
2/8/16 18:28,2.444866419,3.002394199,9.365208626
2/8/16 18:28,2.461616278,2.983251572,9.396315575
2/8/16 18:28,2.461616278,2.966501951,9.417850494
2/8/16 18:28,2.478366137,2.942573547,9.439386368
2/8/16 18:28,2.461616278,2.944966555,9.472886086
2/8/16 18:28,2.447259426,2.933002472,9.525527954
2/8/16 18:28,2.444866419,2.93778801,9.53509903
2/8/16 18:28,2.435295343,2.906681299,9.542277336
2/8/16 18:28,2.432902336,2.885145903,9.585348129
2/8/16 18:28,2.437688112,2.882753134,9.561420441
2/8/16 18:28,2.449652195,2.877967358,9.58295536
2/8/16 18:28,2.452044964,2.844467878,9.561420441
2/8/16 18:28,2.447259426,2.880360365,9.532706261
2/8/16 18:28,2.440080881,2.844467878,9.496813774
2/8/16 18:28,2.416152716,2.825325251,9.43460083
2/8/16 18:28,2.413759947,2.786741018,9.401101112
2/8/16 18:28,2.397010088,2.746062994,9.396315575
2/8/16 18:28,2.380260229,2.753241539,9.360423088
2/8/16 18:28,2.358425856,2.746062994,9.302995682
2/8/16 18:28,2.324926376,2.734098911,9.291030884
2/8/16 18:28,2.30339098,2.746062994,9.250352859
2/8/16 18:28,2.28903389,2.786741018,9.238389015
2/8/16 18:28,2.298605204,2.803490877,9.22881794
2/8/16 18:28,2.298605204,2.827718258,9.207282066
2/8/16 18:28,2.312962294,2.851646423,9.166604042
2/8/16 18:28,2.310569286,2.877967358,9.116354942
2/8/16 18:28,2.279462576,2.913859844,9.101998329
2/8/16 18:28,2.28903389,2.93778801,9.046963692
2/8/16 18:28,2.257927179,2.966501951,8.998807907
2/8/16 18:28,2.219642162,2.96889472,8.986844063
2/8/16 18:28,2.217249393,2.992822886,8.965308189
2/8/16 18:28,2.164607286,3.028715372,8.958129883
2/8/16 18:28,2.145464659,3.057429075,8.941379547
2/8/16 18:28,2.107179403,3.088535786,8.922237396
2/8/16 18:28,2.100000858,3.107678413,8.907880783
2/8/16 18:28,2.080858469,3.145963669,8.929415703
2/8/16 18:28,2.030609131,3.167499065,8.907880783
2/8/16 18:28,2.013859272,3.215355396,8.927022934
2/8/16 18:28,1.958824396,3.212962627,8.946166039
2/8/16 18:28,1.956431627,3.256033421,8.946166039
2/8/16 18:28,1.915753603,3.284747362,8.936594009
2/8/16 18:28,1.875075698,3.294318676,8.958129883
2/8/16 18:28,1.848754644,3.306282759,8.927022934
2/8/16 18:28,1.802991867,3.342175007,8.917451859
2/8/16 18:28,1.776670814,3.344567776,8.938986778
2/8/16 18:28,1.735992789,3.36849618,8.946166039
2/8/16 18:28,1.70249331,3.383152008,8.919844627
2/8/16 18:28,1.68574357,3.404687405,8.881559372
2/8/16 18:28,1.642672777,3.423830032,8.907880783
2/8/16 18:28,1.580459356,3.395116329,8.883952141
2/8/16 18:28,1.518245935,3.416651726,8.843274117
2/8/16 18:28,1.475175142,3.433401346,8.845666885
2/8/16 18:28,1.42971158,3.466900826,8.821739197
2/8/16 18:28,1.369890928,3.481257915,8.83609581
2/8/16 18:28,1.298106313,3.493221998,8.843274117
2/8/16 18:28,1.226022482,3.502793312,8.857631683
2/8/16 18:28,1.149452209,3.512364626,8.843274117
2/8/16 18:28,1.118345499,3.519542933,8.903095245
2/8/16 18:28,1.03698957,3.541078329,8.912666321
2/8/16 18:28,0.948455095,3.567399502,8.91505909
2/8/16 18:28,0.9101699,3.600898981,8.912666321
2/8/16 18:28,0.879063189,3.596113443,8.912666321
2/8/16 18:28,0.883848846,3.61764884,8.907880783
2/8/16 18:28,0.874277592,3.63439846,8.888737679
2/8/16 18:28,0.862313449,3.608077526,8.867202759
2/8/16 18:28,0.881456018,3.615255833,8.80738163
2/8/16 18:28,0.895812988,3.591327667,8.80738163
2/8/16 18:28,0.914955556,3.60329175,8.761918068
2/8/16 18:28,0.919741213,3.591327667,8.730812073
2/8/16 18:28,0.95802635,3.579363585,8.702097893
2/8/16 18:28,0.984347403,3.569792271,8.692526817
2/8/16 18:28,1.010668516,3.588934898,8.635098457
2/8/16 18:28,1.046560764,3.596113443,8.613563538
2/8/16 18:28,1.058524966,3.596113443,8.558527946
2/8/16 18:28,1.092024446,3.620041609,8.546564102
2/8/16 18:28,1.115952611,3.660719633,8.563314438
2/8/16 18:28,1.113559842,3.651148319,8.548956871
2/8/16 18:28,1.120738268,3.68225503,8.536993027
2/8/16 18:28,1.077667475,3.710968733,8.568099976
2/8/16 18:28,1.068096161,3.715754509,8.560921669
2/8/16 18:28,1.034596682,3.725325823,8.560921669
2/8/16 18:28,1.020239711,3.751646757,8.587242126
2/8/16 18:28,0.962812007,3.751646757,8.603992462
2/8/16 18:28,0.950847924,3.775574923,8.603992462
2/8/16 18:28,0.914955556,3.773182154,8.639883995
2/8/16 18:28,0.883848846,3.780360699,8.654241562
2/8/16 18:28,0.89342016,3.77796793,8.682954788
2/8/16 18:28,0.838385224,3.770789385,8.737990379
2/8/16 18:28,0.82881397,3.761218071,8.797810555
2/8/16 18:28,0.816849828,3.761218071,8.845666885
2/8/16 18:28,0.795314431,3.773182154,8.924630165
2/8/16 18:28,0.79770726,3.756432533,8.994022369
2/8/16 18:28,0.802492917,3.744468451,9.07089138
2/8/16 18:28,0.776171863,3.737289906,9.12114048
2/8/16 18:28,0.78095752,3.687040567,9.176176071
2/8/16 18:29,0.768993378,3.660719633,9.252745628
2/8/16 18:29,0.759422064,3.63439846,9.288638115
2/8/16 18:29,0.742672324,3.567399502,9.324530602
2/8/16 18:29,0.752243638,3.52193594,9.391530037
2/8/16 18:29,0.742672324,3.488436222,9.425029755
2/8/16 18:29,0.718744099,3.44297266,9.494421005
2/8/16 18:29,0.721136928,3.402294636,9.523135185
2/8/16 18:29,0.711565614,3.363710403,9.573384285
2/8/16 18:29,0.690030217,3.351746321,9.619147301
2/8/16 18:29,0.651445985,3.344567776,9.650253296
2/8/16 18:29,0.672981381,3.346960783,9.674181938
2/8/16 18:29,0.690030217,3.325425386,9.683753014
2/8/16 18:29,0.716351271,3.342175007,9.69093132
2/8/16 18:29,0.711565614,3.349353552,9.731609344
2/8/16 18:29,0.737886667,3.351746321,9.753145218
2/8/16 18:29,0.759422064,3.346960783,9.762716293
2/8/16 18:29,0.761814892,3.356531858,9.808179855
2/8/16 18:29,0.723529756,3.337389469,9.856036186
2/8/16 18:29,0.730708242,3.337389469,9.901499748
2/8/16 18:29,0.709172785,3.334996462,9.934999466
2/8/16 18:29,0.704387188,3.334996462,9.963713646
2/8/16 18:29,0.713958442,3.337389469,10.00917721
2/8/16 18:29,0.713958442,3.330210924,10.04506969
2/8/16 18:29,0.680159807,3.308675528,10.07139015
2/8/16 18:29,0.699601531,3.327818155,10.13599682
2/8/16 18:29,0.677767038,3.313461065,10.17936707
2/8/16 18:29,0.68524456,3.296711445,10.2344017
2/8/16 18:29,0.665802896,3.265604734,10.25832939
2/8/16 18:29,0.656231582,3.236890793,10.29661465
2/8/16 18:29,0.637089014,3.205784082,10.3277216
2/8/16 18:29,0.656231582,3.186641455,10.36600685
2/8/16 18:29,0.641874671,3.141177893,10.35404301
2/8/16 18:29,0.641874671,3.102892876,10.39472103
2/8/16 18:29,0.649053156,3.069393158,10.35165024
2/8/16 18:29,0.632303357,3.043072224,10.35643578
2/8/16 18:29,0.639481843,3.021536827,10.33968544
2/8/16 18:29,0.620339274,2.980858803,10.3348999
2/8/16 18:29,0.613160789,3.004786968,10.29182911
2/8/16 18:29,0.644267499,3.014358282,10.27507973
2/8/16 18:29,0.663410068,3.002394199,10.24875832
2/8/16 18:29,0.68524456,2.992822886,10.22961617
2/8/16 18:29,0.687637389,3.002394199,10.19850922
2/8/16 18:29,0.682552636,3.002394199,10.16740227
2/8/16 18:29,0.692423046,2.985644341,10.11685371
2/8/16 18:29,0.694815874,3.002394199,10.06660461
2/8/16 18:29,0.711565614,3.000001431,10.05703354
2/8/16 18:29,0.718744099,2.985644341,9.992427826
2/8/16 18:29,0.728315413,2.983251572,9.978070259
2/8/16 18:29,0.752243638,2.997608662,9.944570541
2/8/16 18:29,0.800100088,3.002394199,9.903892517
2/8/16 18:29,0.807278514,2.983251572,9.882357597
2/8/16 18:29,0.812064171,2.985644341,9.870393753
2/8/16 18:29,0.82881397,2.988037348,9.844072342
2/8/16 18:29,0.859920621,2.980858803,9.846465111
2/8/16 18:29,0.864706278,3.009572744,9.829715729
2/8/16 18:29,0.89342016,2.985644341,9.781859398
2/8/16 18:29,0.922134042,3.03350091,9.755537987
2/8/16 18:29,0.97238332,3.014358282,9.676574707
2/8/16 18:29,1.013061285,3.035893679,9.628718376
2/8/16 18:29,1.060917735,3.043072224,9.58295536
2/8/16 18:29,1.118345499,3.045464993,9.515956879
2/8/16 18:29,1.156630635,3.057429075,9.475278854
2/8/16 18:29,1.194915771,3.026322365,9.391530037
2/8/16 18:29,1.293320656,3.047857761,9.324530602
2/8/16 18:29,1.319641709,3.038286448,9.269495964
2/8/16 18:29,1.355534077,3.050250769,9.185747147
2/8/16 18:29,1.412961721,3.052643538,9.133105278
2/8/16 18:29,1.47756803,3.071786165,9.085248947
2/8/16 18:29,1.532602906,3.076571703,9.010771751
2/8/16 18:29,1.570888042,3.067000389,8.965308189
2/8/16 18:29,1.640279889,3.078964472,8.888737679
2/8/16 18:29,1.683350682,3.102892876,8.852845192
2/8/16 18:29,1.728814363,3.124428272,8.816953659
2/8/16 18:29,1.757528186,3.112463951,8.773882866
2/8/16 18:29,1.78145647,3.122035265,8.752346992
2/8/16 18:29,1.805384636,3.117249727,8.745168686
2/8/16 18:29,1.80807662,3.102892876,8.721240044
2/8/16 18:29,1.810469389,3.119642496,8.72841835
2/8/16 18:29,1.815255046,3.102892876,8.711668968
2/8/16 18:29,1.841576099,3.083750248,8.742775917
2/8/16 18:29,1.839183331,3.06460762,8.742775917
2/8/16 18:29,1.846361756,3.062214851,8.733204842
2/8/16 18:29,1.841576099,3.055036306,8.764310837
2/8/16 18:29,1.822433591,3.035893679,8.797810555
2/8/16 18:29,1.78145647,3.021536827,8.819346428
2/8/16 18:29,1.738385677,2.997608662,8.860024452
2/8/16 18:29,1.688136339,2.980858803,8.900702477
2/8/16 18:29,1.625923038,2.956930637,8.977272034
2/8/16 18:29,1.604387641,2.942573547,9.015557289
2/8/16 18:29,1.573280931,2.933002472,9.063713074
2/8/16 18:29,1.554138303,2.925823927,9.142676353
2/8/16 18:29,1.549352646,2.928216696,9.183354378
2/8/16 18:29,1.515853167,2.887538671,9.231210709
2/8/16 18:29,1.518245935,2.877967358,9.252745628
2/8/16 18:29,1.51106751,2.849253654,9.286245346
2/8/16 18:29,1.51106751,2.858824968,9.322137833
2/8/16 18:29,1.513460279,2.866003275,9.350852013
2/8/16 18:29,1.52542448,2.856431961,9.389137268
2/8/16 18:29,1.506281853,2.849253654,9.413064957
2/8/16 18:29,1.506281853,2.822932482,9.446564674
2/8/16 18:29,1.472782373,2.822932482,9.436993599
2/8/16 18:29,1.489532113,2.803490877,9.453742981
2/8/16 18:29,1.49431777,2.784348249,9.446564674
2/8/16 18:29,1.523031592,2.762812853,9.470493317
2/8/16 18:29,1.506281853,2.746062994,9.460921288
2/8/16 18:29,1.534995675,2.726920605,9.453742981
2/8/16 18:29,1.566102386,2.67188549,9.43460083
2/8/16 18:29,1.582852125,2.650350094,9.441779137
2/8/16 18:29,1.621137381,2.64077878,9.408279419
2/8/16 18:29,1.625923038,2.626421928,9.40588665
2/8/16 18:29,1.661815286,2.62402916,9.381958008
2/8/16 18:29,1.678565025,2.607279301,9.369994164
2/8/16 18:29,1.704886079,2.619243383,9.35563755
2/8/16 18:29,1.73360002,2.59052968,9.353244781
2/8/16 18:29,1.73360002,2.602493763,9.367601395
2/8/16 18:29,1.764706731,2.602493763,9.374779701
2/8/16 18:29,1.776670814,2.602493763,9.334101677
2/8/16 18:29,1.815255046,2.588136673,9.341280937
2/8/16 18:29,1.867897153,2.573779821,9.324530602
2/8/16 18:29,1.906182289,2.602493763,9.336494446
2/8/16 18:29,1.927717686,2.602493763,9.329316139
2/8/16 18:29,1.946860313,2.602493763,9.329316139
2/8/16 18:29,1.95164597,2.616850615,9.350852013
2/8/16 18:29,1.982752681,2.609672308,9.37717247
2/8/16 18:29,1.987538338,2.59052968,9.391530037
2/8/16 18:29,1.96839571,2.578565598,9.40588665
2/8/16 18:29,1.956431627,2.537887573,9.429815292
2/8/16 18:29,1.942074656,2.511566401,9.448957443
2/8/16 18:29,1.884646893,2.492423773,9.453742981
2/8/16 18:29,1.867897153,2.478066921,9.43460083
2/8/16 18:29,1.810469389,2.466102839,9.422636032
2/8/16 18:29,1.764706731,2.451745987,9.470493317
2/8/16 18:29,1.692921996,2.444567442,9.501599312
2/8/16 18:29,1.640279889,2.442174673,9.556634903
2/8/16 18:29,1.585245013,2.434996128,9.578169823
2/8/16 18:29,1.508674622,2.446960211,9.623932838
2/8/16 18:29,1.427318692,2.470888376,9.664610863
2/8/16 18:29,1.348355532,2.46371007,9.712467194
2/8/16 18:29,1.295713425,2.49481678,9.745966911
2/8/16 18:29,1.235593796,2.513959408,9.767501831
2/8/16 18:29,1.194915771,2.516352177,9.762716293
2/8/16 18:29,1.142273664,2.523530483,9.757930756
2/8/16 18:29,1.151844978,2.535494804,9.777072906
2/8/16 18:29,1.161416292,2.528316259,9.779465675
2/8/16 18:29,1.130309582,2.554637194,9.801001549
2/8/16 18:29,1.123131156,2.516352177,9.789037704
2/8/16 18:29,1.125523925,2.537887573,9.774680138
2/8/16 18:29,1.113559842,2.540280342,9.762716293
2/8/16 18:29,1.123131156,2.518744946,9.772287369
2/8/16 18:29,1.135095239,2.518744946,9.777072906
2/8/16 18:29,1.159023523,2.533101797,9.734002113
2/8/16 18:29,1.192523003,2.54506588,9.74835968
2/8/16 18:29,1.211665511,2.580958366,9.7196455
2/8/16 18:29,1.221236825,2.59052968,9.683753014
2/8/16 18:29,1.245464206,2.621636391,9.683753014
2/8/16 18:29,1.271785259,2.628814697,9.655039787
2/8/16 18:29,1.295713425,2.612065077,9.62154007
2/8/16 18:29,1.324427366,2.635993242,9.607182503
2/8/16 18:29,1.314856052,2.631207705,9.590433121
2/8/16 18:29,1.362712502,2.650350094,9.559027672
2/8/16 18:29,1.365105271,2.657528639,9.547062874
2/8/16 18:29,1.367498159,2.68624258,9.532706261
2/8/16 18:29,1.391426325,2.707777977,9.50638485
2/8/16 18:29,1.400997639,2.717349291,9.492028236
2/8/16 18:29,1.422533035,2.714956284,9.472886086
2/8/16 18:29,1.417747378,2.746062994,9.448957443
2/8/16 18:29,1.427318692,2.755634308,9.432208061
2/8/16 18:29,1.408176184,2.758027315,9.369994164
2/8/16 18:29,1.39860487,2.75084877,9.358030319
2/8/16 18:29,1.377069473,2.748456001,9.336494446
2/8/16 18:29,1.38185513,2.726920605,9.298210144
2/8/16 18:29,1.396211982,2.729313374,9.245567322
2/8/16 18:29,1.362712502,2.710170746,9.219246864
2/8/16 18:29,1.338784218,2.695813894,9.188139915
2/8/16 18:29,1.360319614,2.71974206,9.171390533
2/8/16 18:29,1.357926846,2.722134829,9.130712509
2/8/16 18:29,1.389033556,2.734098911,9.111569405
2/8/16 18:29,1.377069473,2.760420084,9.087641716
2/8/16 18:29,1.372283816,2.784348249,9.075676918
2/8/16 18:29,1.372283816,2.784348249,9.082855225
2/8/16 18:29,1.369890928,2.801098108,9.054141998
2/8/16 18:29,1.360319614,2.830111027,9.046963692
2/8/16 18:29,1.341177106,2.851646423,9.051749229
2/8/16 18:29,1.30289197,2.877967358,9.046963692
2/8/16 18:29,1.266999602,2.887538671,9.027522087
2/8/16 18:29,1.242772222,2.899502754,9.034998894
2/8/16 18:29,1.19730866,2.885145903,9.034998894
2/8/16 18:29,1.173380375,2.887538671,9.044570923
2/8/16 18:29,1.151844978,2.887538671,9.049356461
2/8/16 18:29,1.092024446,2.88993144,9.066105843
2/8/16 18:29,1.065703392,2.916252613,9.073284149
2/8/16 18:29,1.010668516,2.906681299,9.075676918
2/8/16 18:29,0.981954575,2.944966555,9.058927536
2/8/16 18:29,0.969990492,2.933002472,9.068498611
2/8/16 18:29,0.931705296,2.930609465,9.056534767
2/8/16 18:29,0.912562728,2.933002472,9.054141998
2/8/16 18:29,0.900598645,2.935395241,9.068498611
2/8/16 18:29,0.89342016,2.944966555,9.054141998
2/8/16 18:29,0.9101699,2.947359324,9.068498611
2/8/16 18:29,0.922134042,2.949752092,9.056534767
2/8/16 18:29,0.917348385,2.96889472,9.066105843
2/8/16 18:29,0.962812007,2.992822886,9.07089138
2/8/16 18:29,0.977168918,2.988037348,9.061320305
2/8/16 18:29,0.981954575,3.019144058,9.073284149
2/8/16 18:29,0.993918717,3.016751051,9.063713074
2/8/16 18:29,1.005882859,3.062214851,9.058927536
2/8/16 18:29,1.048953652,3.055036306,9.075676918
2/8/16 18:29,1.111167073,3.067000389,9.066105843
2/8/16 18:29,1.147059321,3.057429075,9.039784431
2/8/16 18:29,1.194915771,3.071786165,9.046963692
2/8/16 18:29,1.237986565,3.062214851,9.034998894
2/8/16 18:29,1.298106313,3.076571703,8.996415138
2/8/16 18:29,1.326820135,3.069393158,8.989236832
2/8/16 18:29,1.369890928,3.086143017,8.972486496
2/8/16 18:29,1.422533035,3.069393158,8.94377327
2/8/16 18:29,1.491924882,3.071786165,8.955737114
2/8/16 18:29,1.506281853,3.074178934,8.941379547
2/8/16 18:29,1.554138303,3.083750248,8.946166039
2/8/16 18:29,1.60678041,3.088535786,8.948558807
2/8/16 18:29,1.621137381,3.081357241,8.938986778
2/8/16 18:29,1.652244091,3.102892876,8.948558807
2/8/16 18:29,1.68574357,3.088535786,8.950951576
2/8/16 18:29,1.70249331,3.107678413,8.936594009
2/8/16 18:29,1.740778446,3.110071182,8.936594009
2/8/16 18:29,1.726421595,3.114856958,8.948558807
2/8/16 18:29,1.769492388,3.102892876,8.938986778
2/8/16 18:29,1.786242127,3.095714331,8.962915421
2/8/16 18:29,1.810469389,3.122035265,8.974879265
2/8/16 18:29,1.834397674,3.150749207,8.991629601
2/8/16 18:29,1.865504384,3.155534744,8.982057571
2/8/16 18:29,1.879861236,3.172284603,8.994022369
2/8/16 18:29,1.879861236,3.196212769,8.996415138
2/8/16 18:29,1.884646893,3.196212769,9.010771751
2/8/16 18:29,1.901396751,3.169891834,8.996415138
2/8/16 18:29,1.860718727,3.19382,8.989236832
2/8/16 18:29,1.848754644,3.189034462,8.996415138
2/8/16 18:29,1.82482636,3.189034462,8.984451294
2/8/16 18:29,1.776670814,3.189034462,8.974879265
2/8/16 18:29,1.752742529,3.220141172,8.941379547
2/8/16 18:29,1.738385677,3.212962627,8.924630165
2/8/16 18:30,1.712064624,3.234498024,8.898308754
2/8/16 18:30,1.676172256,3.272783279,8.879166603
2/8/16 18:30,1.642672777,3.277568817,8.891130447
2/8/16 18:30,1.616351724,3.32063961,8.88634491
2/8/16 18:30,1.59003067,3.339782238,8.893523216
2/8/16 18:30,1.544566989,3.390330553,8.874381065
2/8/16 18:30,1.54217422,3.41186595,8.888737679
2/8/16 18:30,1.523031592,3.428615808,8.919844627
2/8/16 18:30,1.530210137,3.447758436,8.912666321
2/8/16 18:30,1.515853167,3.481257915,8.929415703
2/8/16 18:30,1.51106751,3.488436222,8.893523216
2/8/16 18:30,1.52542448,3.498007536,8.905488014
2/8/16 18:30,1.518245935,3.500400543,8.883952141
2/8/16 18:30,1.537388563,3.519542933,8.876773834
2/8/16 18:30,1.556531072,3.52193594,8.862417221
2/8/16 18:30,1.582852125,3.524328709,8.857631683
2/8/16 18:30,1.59003067,3.519542933,8.862417221
2/8/16 18:30,1.621137381,3.517150164,8.857631683
2/8/16 18:30,1.652244091,3.50757885,8.843274117
2/8/16 18:30,1.668993831,3.505186081,8.848059654
2/8/16 18:30,1.683350682,3.481257915,8.826524734
2/8/16 18:30,1.712064624,3.486043453,8.819346428
2/8/16 18:30,1.724028707,3.514757395,8.816953659
2/8/16 18:30,1.774278045,3.50757885,8.78584671
2/8/16 18:30,1.745564103,3.512364626,8.761918068
2/8/16 18:30,1.755135417,3.533900023,8.73559761
2/8/16 18:30,1.759921074,3.533900023,8.694919586
2/8/16 18:30,1.731207132,3.517150164,8.675776482
2/8/16 18:30,1.70249331,3.553042412,8.651848793
2/8/16 18:30,1.618744493,3.533900023,8.635098457
2/8/16 18:30,1.573280931,3.524328709,8.584849358
2/8/16 18:30,1.520638824,3.543471336,8.584849358
2/8/16 18:30,1.444068432,3.543471336,8.544171333
2/8/16 18:30,1.384247899,3.541078329,8.52981472
2/8/16 18:30,1.336391449,3.562613726,8.508278847
2/8/16 18:30,1.30289197,3.567399502,8.486743927
2/8/16 18:30,1.25503552,3.550649643,8.457730293
2/8/16 18:30,1.221236825,3.591327667,8.438588142
2/8/16 18:30,1.199701428,3.569792271,8.4146595
2/8/16 18:30,1.175773263,3.569792271,8.402695656
2/8/16 18:30,1.151844978,3.560220957,8.397910118
2/8/16 18:30,1.151844978,3.557828188,8.357232094
2/8/16 18:30,1.147059321,3.57218504,8.357232094
2/8/16 18:30,1.159023523,3.548256874,8.376375198
2/8/16 18:30,1.135095239,3.560220957,8.402695656
2/8/16 18:30,1.170987606,3.565006733,8.469993591
2/8/16 18:30,1.18055892,3.567399502,8.515457153
2/8/16 18:30,1.206879973,3.560220957,8.589634895
2/8/16 18:30,1.230808139,3.569792271,8.651848793
2/8/16 18:30,1.242772222,3.531507015,8.714061737
2/8/16 18:30,1.276570916,3.509971619,8.781061172
2/8/16 18:30,1.324427366,3.478864908,8.828917503
2/8/16 18:30,1.353141189,3.428615808,8.905488014
2/8/16 18:30,1.379462242,3.390330553,8.946166039
2/8/16 18:30,1.393819213,3.344567776,9.001200676
2/8/16 18:30,1.417747378,3.291925669,9.046963692
2/8/16 18:30,1.451246977,3.22492671,9.080462456
2/8/16 18:30,1.475175142,3.181855917,9.142676353
2/8/16 18:30,1.491924882,3.162713289,9.192925453
2/8/16 18:30,1.491924882,3.153141975,9.219246864
2/8/16 18:30,1.530210137,3.131606579,9.25753212
2/8/16 18:30,1.544566989,3.126821041,9.281459808
2/8/16 18:30,1.55892396,3.119642496,9.314959526
2/8/16 18:30,1.592423439,3.12921381,9.35563755
2/8/16 18:30,1.613958836,3.136392355,9.329316139
2/8/16 18:30,1.633101463,3.165106058,9.365208626
2/8/16 18:30,1.65463686,3.184248686,9.381958008
2/8/16 18:30,1.623530149,3.198605776,9.365208626
2/8/16 18:30,1.625923038,3.198605776,9.348459244
2/8/16 18:30,1.573280931,3.198605776,9.37717247
2/8/16 18:30,1.513460279,3.19382,9.338887215
2/8/16 18:30,1.482353687,3.212962627,9.32692337
2/8/16 18:30,1.441675663,3.186641455,9.336494446
2/8/16 18:30,1.412961721,3.179463148,9.300602913
2/8/16 18:30,1.384247899,3.169891834,9.279067039
2/8/16 18:30,1.362712502,3.184248686,9.255139351
2/8/16 18:30,1.341177106,3.191427231,9.221639633
2/8/16 18:30,1.33399868,3.191427231,9.197710991
2/8/16 18:30,1.341177106,3.208176851,9.17856884
2/8/16 18:30,1.362712502,3.215355396,9.164211273
2/8/16 18:30,1.369890928,3.229712248,9.147461891
2/8/16 18:30,1.393819213,3.258426189,9.147461891
2/8/16 18:30,1.391426325,3.2895329,9.152247429
2/8/16 18:30,1.412961721,3.296711445,9.173783302
2/8/16 18:30,1.422533035,3.306282759,9.180961609
2/8/16 18:30,1.44646132,3.303889751,9.204889297
2/8/16 18:30,1.434497118,3.311068296,9.233603477
2/8/16 18:30,1.470389485,3.291925669,9.262317657
2/8/16 18:30,1.501496196,3.287140131,9.307781219
2/8/16 18:30,1.49431777,3.282354355,9.353244781
2/8/16 18:30,1.52542448,3.251247883,9.348459244
2/8/16 18:30,1.534995675,3.241676569,9.389137268
2/8/16 18:30,1.55892396,3.234498024,9.432208061
2/8/16 18:30,1.59003067,3.217748165,9.45613575
2/8/16 18:30,1.609173179,3.215355396,9.465706825
2/8/16 18:30,1.635494232,3.208176851,9.499206543
2/8/16 18:30,1.692921996,3.191427231,9.501599312
2/8/16 18:30,1.745564103,3.19382,9.51356411
2/8/16 18:30,1.762313843,3.143570662,9.532706261
2/8/16 18:30,1.788634896,3.153141975,9.530313492
2/8/16 18:30,1.815255046,3.162713289,9.549455643
2/8/16 18:30,1.817647934,3.126821041,9.554242134
2/8/16 18:30,1.851147413,3.131606579,9.549455643
2/8/16 18:30,1.853540182,3.16032052,9.515956879
2/8/16 18:30,1.860718727,3.124428272,9.527920723
2/8/16 18:30,1.877468467,3.136392355,9.50638485
2/8/16 18:30,1.863111496,3.150749207,9.496813774
2/8/16 18:30,1.843968987,3.16032052,9.436993599
2/8/16 18:30,1.832004786,3.174677372,9.415457726
2/8/16 18:30,1.755135417,3.181855917,9.391530037
2/8/16 18:30,1.70249331,3.200998545,9.353244781
2/8/16 18:30,1.642672777,3.205784082,9.334101677
2/8/16 18:30,1.54217422,3.205784082,9.348459244
2/8/16 18:30,1.456032634,3.22492671,9.348459244
2/8/16 18:30,1.343569875,3.212962627,9.312566757
2/8/16 18:30,1.237986565,3.241676569,9.319745064
2/8/16 18:30,1.168594718,3.272783279,9.279067039
2/8/16 18:30,1.106381416,3.318246841,9.25753212
2/8/16 18:30,1.068096161,3.327818155,9.214461327
2/8/16 18:30,1.034596682,3.375674486,9.212067604
2/8/16 18:30,1.015454054,3.428615808,9.183354378
2/8/16 18:30,1.005882859,3.433401346,9.176176071
2/8/16 18:30,1.017846942,3.476472139,9.164211273
2/8/16 18:30,1.005882859,3.50757885,9.168996811
2/8/16 18:30,1.017846942,3.536292791,9.157032967
2/8/16 18:30,1.013061285,3.541078329,9.130712509
2/8/16 18:30,1.003489971,3.560220957,9.133105278
2/8/16 18:30,1.013061285,3.57218504,9.152247429
2/8/16 18:30,1.048953652,3.593720436,9.154640198
2/8/16 18:30,1.080060363,3.627219915,9.14985466
2/8/16 18:30,1.096810102,3.641577005,9.154640198
2/8/16 18:30,1.120738268,3.684647799,9.159425735
2/8/16 18:30,1.173380375,3.694219112,9.157032967
2/8/16 18:30,1.22841537,3.725325823,9.166604042
2/8/16 18:30,1.247856975,3.737289906,9.157032967
2/8/16 18:30,1.262213945,3.751646757,9.14985466
2/8/16 18:30,1.331605792,3.756432533,9.133105278
2/8/16 18:30,1.33399868,3.749253988,9.157032967
2/8/16 18:30,1.391426325,3.766003847,9.135498047
2/8/16 18:30,1.386640668,3.766003847,9.140283585
2/8/16 18:30,1.39860487,3.756432533,9.147461891
2/8/16 18:30,1.424925923,3.782753468,9.123533249
2/8/16 18:30,1.410568953,3.792324781,9.12831974
2/8/16 18:30,1.453639746,3.792324781,9.092427254
2/8/16 18:30,1.441675663,3.813860178,9.09960556
2/8/16 18:30,1.453639746,3.82821703,9.068498611
2/8/16 18:30,1.434497118,3.818645954,9.056534767
2/8/16 18:30,1.403390527,3.818645954,9.015557289
2/8/16 18:30,1.386640668,3.804288864,9.010771751
2/8/16 18:30,1.353141189,3.804288864,8.984451294
2/8/16 18:30,1.322034478,3.797110319,8.982057571
2/8/16 18:30,1.33399868,3.773182154,8.962915421
2/8/16 18:30,1.317248821,3.770789385,8.984451294
2/8/16 18:30,1.331605792,3.782753468,8.979664803
2/8/16 18:30,1.329213023,3.773182154,8.972486496
2/8/16 18:30,1.322034478,3.768396616,8.998807907
2/8/16 18:30,1.322034478,3.775574923,9.039784431
2/8/16 18:30,1.314856052,3.77796793,9.061320305
2/8/16 18:30,1.293320656,3.785146236,9.104391098
2/8/16 18:30,1.245464206,3.77796793,9.12114048
2/8/16 18:30,1.211665511,3.804288864,9.17856884
2/8/16 18:30,1.214058399,3.787539244,9.192925453
2/8/16 18:30,1.192523003,3.789932013,9.224032402
2/8/16 18:30,1.204487085,3.785146236,9.231210709
2/8/16 18:30,1.233201027,3.766003847,9.212067604
2/8/16 18:30,1.257428288,3.77796793,9.22881794
2/8/16 18:30,1.307677627,3.761218071,9.240781784
2/8/16 18:30,1.326820135,3.773182154,9.238389015
2/8/16 18:30,1.369890928,3.768396616,9.245567322
2/8/16 18:30,1.427318692,3.773182154,9.233603477
2/8/16 18:30,1.482353687,3.749253988,9.226425171
2/8/16 18:30,1.47756803,3.701397419,9.212067604
2/8/16 18:30,1.487139225,3.691826344,9.212067604
2/8/16 18:30,1.532602906,3.639184237,9.185747147
2/8/16 18:30,1.546959877,3.61764884,9.180961609
2/8/16 18:30,1.570888042,3.596113443,9.14985466
2/8/16 18:30,1.618744493,3.567399502,9.142676353
2/8/16 18:30,1.621137381,3.541078329,9.12114048
2/8/16 18:30,1.642672777,3.529114246,9.118747711
2/8/16 18:30,1.642672777,3.519542933,9.123533249
2/8/16 18:30,1.640279889,3.519542933,9.097212791
2/8/16 18:30,1.657029629,3.50757885,9.07089138
2/8/16 18:30,1.65463686,3.495614767,9.085248947
2/8/16 18:30,1.659422517,3.483650684,9.061320305
2/8/16 18:30,1.652244091,3.464508057,9.085248947
2/8/16 18:30,1.659422517,3.471686602,9.07089138
2/8/16 18:30,1.664208174,3.464508057,9.07089138
2/8/16 18:30,1.647458434,3.464508057,9.080462456
2/8/16 18:30,1.65463686,3.464508057,9.085248947
2/8/16 18:30,1.60678041,3.486043453,9.080462456
2/8/16 18:30,1.587637782,3.493221998,9.104391098
2/8/16 18:30,1.566102386,3.502793312,9.12831974
2/8/16 18:30,1.499103427,3.519542933,9.152247429
2/8/16 18:30,1.460818172,3.53868556,9.14985466
2/8/16 18:30,1.460818172,3.545864105,9.180961609
2/8/16 18:30,1.444068432,3.584149122,9.154640198
2/8/16 18:30,1.451246977,3.588934898,9.145069122
2/8/16 18:30,1.453639746,3.584149122,9.164211273
2/8/16 18:30,1.44646132,3.615255833,9.154640198
2/8/16 18:30,1.436890006,3.624827147,9.123533249
2/8/16 18:30,1.412961721,3.627219915,9.116354942
2/8/16 18:30,1.424925923,3.643969774,9.09960556
2/8/16 18:30,1.369890928,3.660719633,9.061320305
2/8/16 18:30,1.357926846,3.639184237,9.020342827
2/8/16 18:30,1.329213023,3.622434378,8.991629601
2/8/16 18:30,1.300499082,3.646362543,8.953344345
2/8/16 18:30,1.28614223,3.663112402,8.931808472
2/8/16 18:30,1.242772222,3.651148319,8.88634491
2/8/16 18:30,1.209272742,3.701397419,8.83609581
2/8/16 18:30,1.204487085,3.710968733,8.831310272
2/8/16 18:30,1.154237866,3.737289906,8.761918068
2/8/16 18:30,1.125523925,3.751646757,8.730812073
2/8/16 18:30,1.072881818,3.749253988,8.682954788
2/8/16 18:30,1.020239711,3.773182154,8.632705688
2/8/16 18:30,0.979561746,3.789932013,8.613563538
2/8/16 18:30,0.929312468,3.811467409,8.570492744
2/8/16 18:30,0.888634503,3.835395575,8.515457153
2/8/16 18:30,0.855134964,3.852145433,8.474779129
2/8/16 18:30,0.843170881,3.866502285,8.417053223
2/8/16 18:30,0.819242656,3.900001764,8.369195938
2/8/16 18:30,0.773779035,3.90478754,8.311768532
2/8/16 18:30,0.745065153,3.921537161,8.259126663
2/8/16 18:30,0.690030217,3.93828702,8.206484795
2/8/16 18:30,0.653838813,3.935894251,8.15862751
2/8/16 18:30,0.603589535,3.952943087,8.089236259
2/8/16 18:30,0.596411049,3.92392993,8.034200668
2/8/16 18:30,0.584446907,3.90478754,7.971987724
2/8/16 18:30,0.560518682,3.897608995,7.919345856
2/8/16 18:30,0.562911511,3.909573078,7.85922575
2/8/16 18:30,0.586839736,3.92392993,7.811369419
2/8/16 18:30,0.617946446,3.90478754,7.782655716
2/8/16 18:30,0.644267499,3.935894251,7.720442295
2/8/16 18:30,0.651445985,3.933501244,7.703692436
2/8/16 18:30,0.639481843,3.945764542,7.684549809
2/8/16 18:30,0.625124931,3.976871252,7.684549809
2/8/16 18:30,0.605982363,3.955335855,7.689335346
2/8/16 18:30,0.586839736,3.964907169,7.701299667
2/8/16 18:30,0.555733085,3.969692707,7.708477974
2/8/16 18:30,0.548554599,3.960121393,7.725227833
2/8/16 18:30,0.558125854,3.967299938,7.727620602
2/8/16 18:31,0.584446907,3.94815731,7.741977692
2/8/16 18:31,0.591625392,3.955335855,7.806583881
2/8/16 18:31,0.603589535,3.945764542,7.828119278
2/8/16 18:31,0.57966131,3.900001764,7.890332699
2/8/16 18:31,0.570089996,3.90478754,7.979166031
2/8/16 18:31,0.567697167,3.902394533,8.050951004
2/8/16 18:31,0.546161771,3.911965847,8.067700386
2/8/16 18:31,0.517447889,3.897608995,8.091629028
2/8/16 18:31,0.522233546,3.897608995,8.10837841
2/8/16 18:31,0.536590457,3.876073599,8.13709259
2/8/16 18:31,0.574875653,3.883252144,8.117949486
2/8/16 18:31,0.577268481,3.878466368,8.13709259
2/8/16 18:31,0.591625392,3.888037682,8.139485359
2/8/16 18:31,0.586839736,3.90478754,8.151449203
2/8/16 18:31,0.598803878,3.907180309,8.161020279
2/8/16 18:31,0.632303357,3.964907169,8.156234741
2/8/16 18:31,0.656231582,3.967299938,8.16580677
2/8/16 18:31,0.690030217,4.031906128,8.144270897
2/8/16 18:31,0.716351271,4.053441525,8.134699821
2/8/16 18:31,0.761814892,4.094119549,8.134699821
2/8/16 18:31,0.768993378,4.118047714,8.125128746
2/8/16 18:31,0.761814892,4.153940201,8.15862751
2/8/16 18:31,0.773779035,4.165904045,8.161020279
2/8/16 18:31,0.721136928,4.180261135,8.161020279
2/8/16 18:31,0.699601531,4.204189301,8.184948921
2/8/16 18:31,0.67537421,4.206582069,8.194519997
2/8/16 18:31,0.632303357,4.223331928,8.218448639
2/8/16 18:31,0.598803878,4.242474556,8.223234177
2/8/16 18:31,0.555733085,4.242474556,8.230412483
2/8/16 18:31,0.510269404,4.252045631,8.249555588
2/8/16 18:31,0.46719861,4.266402721,8.273483276
2/8/16 18:31,0.426520646,4.273581028,8.29501915
2/8/16 18:31,0.397806764,4.273581028,8.28783989
2/8/16 18:31,0.381056994,4.309473515,8.278268814
2/8/16 18:31,0.347557485,4.290330887,8.290233612
2/8/16 18:31,0.318843603,4.285545349,8.275876045
2/8/16 18:31,0.273379982,4.314259052,8.23759079
2/8/16 18:31,0.249451757,4.311866283,8.230412483
2/8/16 18:31,0.249451757,4.304687977,8.182556152
2/8/16 18:31,0.208773777,4.29750967,8.153841972
2/8/16 18:31,0.194416836,4.326223373,8.110771179
2/8/16 18:31,0.148953214,4.319045067,8.058129311
2/8/16 18:31,0.125024989,4.323830605,7.986344814
2/8/16 18:31,0.100797653,4.321437836,7.907381535
2/8/16 18:31,0.088833541,4.319045067,7.854440212
2/8/16 18:31,0.050548378,4.319045067,7.811369419
2/8/16 18:31,0.014656039,4.314259052,7.765905857
2/8/16 18:31,-0.006879365,4.335794449,7.725227833
2/8/16 18:31,-0.045164529,4.345366001,7.703692436
2/8/16 18:31,-0.069092751,4.381258488,7.689335346
2/8/16 18:31,-0.076271221,4.41236496,7.624729156
2/8/16 18:31,-0.112163559,4.438685894,7.627122402
2/8/16 18:31,-0.155234367,4.472185612,7.624729156
2/8/16 18:31,-0.179162592,4.488935471,7.615158081
2/8/16 18:31,-0.162412837,4.505984306,7.612765312
2/8/16 18:31,-0.171984121,4.527519703,7.629515171
2/8/16 18:31,-0.191126704,4.532305241,7.643871784
2/8/16 18:31,-0.186341062,4.541876316,7.658228874
2/8/16 18:31,-0.203090817,4.541876316,7.710870743
2/8/16 18:31,-0.186341062,4.546662331,7.722835064
2/8/16 18:31,-0.193519533,4.537090778,7.770691395
2/8/16 18:31,-0.169591308,4.563411713,7.82333374
2/8/16 18:31,-0.169591308,4.575376034,7.871190071
2/8/16 18:31,-0.148055896,4.565804482,7.895118237
2/8/16 18:31,-0.12173485,4.549055099,7.950452328
2/8/16 18:31,-0.116949208,4.532305241,8.01027298
2/8/16 18:31,-0.088235334,4.515555382,8.055736542
2/8/16 18:31,-0.069092751,4.498506546,8.084450722
2/8/16 18:31,-0.081056871,4.462614059,8.139485359
2/8/16 18:31,-0.049950171,4.433900356,8.16580677
2/8/16 18:31,-0.030807592,4.429114819,8.220841408
2/8/16 18:31,0.014656039,4.429114819,8.259126663
2/8/16 18:31,0.069690958,4.414757729,8.314161301
2/8/16 18:31,0.103190474,4.41236496,8.373981476
2/8/16 18:31,0.160917327,4.395615101,8.412266731
2/8/16 18:31,0.199202478,4.407579422,8.477172852
2/8/16 18:31,0.220737889,4.386044025,8.534600258
2/8/16 18:31,0.278165638,4.390829563,8.589634895
2/8/16 18:31,0.297308207,4.383651257,8.649456024
2/8/16 18:31,0.330807716,4.383651257,8.699705124
2/8/16 18:31,0.373878539,4.366901398,8.733204842
2/8/16 18:31,0.383449823,4.381258488,8.761918068
2/8/16 18:31,0.404985219,4.366901398,8.78584671
2/8/16 18:31,0.440877587,4.34775877,8.812167168
2/8/16 18:31,0.469591439,4.335794449,8.848059654
2/8/16 18:31,0.445663214,4.342973232,8.898308754
2/8/16 18:31,0.409770876,4.354937077,8.919844627
2/8/16 18:31,0.347557485,4.371686935,8.984451294
2/8/16 18:31,0.318843603,4.364508629,9.022735596
2/8/16 18:31,0.266201526,4.417150497,9.063713074
2/8/16 18:31,0.237487644,4.41236496,9.092427254
2/8/16 18:31,0.172881439,4.445864677,9.135498047
2/8/16 18:31,0.132203445,4.455435753,9.168996811
2/8/16 18:31,0.105583303,4.453042984,9.188139915
2/8/16 18:31,0.08165507,4.474578381,9.233603477
2/8/16 18:31,0.050548378,4.438685894,9.25753212
2/8/16 18:31,0.045762733,4.465006828,9.283852577
2/8/16 18:31,0.021834506,4.460221291,9.319745064
2/8/16 18:31,0.031405795,4.457828522,9.362815857
2/8/16 18:31,0.038584266,4.441078663,9.413064957
2/8/16 18:31,0.019441685,4.431507587,9.427422523
2/8/16 18:31,0.03379862,4.431507587,9.460921288
2/8/16 18:31,0.08644072,4.421936035,9.515956879
2/8/16 18:31,0.110368945,4.407579422,9.549455643
2/8/16 18:31,0.175274253,4.39800787,9.573384285
2/8/16 18:31,0.232702002,4.390829563,9.59282589
2/8/16 18:31,0.309272319,4.369294167,9.616754532
2/8/16 18:31,0.347557485,4.36211586,9.616754532
2/8/16 18:31,0.43609193,4.345366001,9.638289452
2/8/16 18:31,0.51505506,4.323830605,9.626325607
2/8/16 18:31,0.57966131,4.307080746,9.664610863
2/8/16 18:31,0.668195725,4.309473515,9.671789169
2/8/16 18:31,0.764207721,4.299902439,9.683753014
2/8/16 18:31,0.795314431,4.304687977,9.681360245
2/8/16 18:31,0.852742195,4.299902439,9.671789169
2/8/16 18:31,0.902991474,4.29750967,9.650253296
2/8/16 18:31,0.946062267,4.309473515,9.611968994
2/8/16 18:31,0.95802635,4.342973232,9.62154007
2/8/16 18:31,0.991525888,4.326223373,9.607182503
2/8/16 18:31,1.020239711,4.340580463,9.568598747
2/8/16 18:31,1.015454054,4.369294167,9.542277336
2/8/16 18:31,1.008275628,4.376472473,9.539884567
2/8/16 18:31,0.984347403,4.390829563,9.496813774
2/8/16 18:31,0.993918717,4.405186653,9.470493317
2/8/16 18:31,0.986740232,4.42672205,9.432208061
2/8/16 18:31,0.996311545,4.450650215,9.346066475
2/8/16 18:31,0.984347403,4.445864677,9.291030884
2/8/16 18:31,0.974776149,4.481756687,9.226425171
2/8/16 18:31,0.962812007,4.486542225,9.202496529
2/8/16 18:31,0.926919699,4.493721008,9.157032967
2/8/16 18:31,0.917348385,4.525126934,9.118747711
2/8/16 18:31,0.874277592,4.525126934,9.113962173
2/8/16 18:31,0.850349367,4.551447868,9.085248947
2/8/16 18:31,0.802492917,4.58255434,9.037391663
2/8/16 18:31,0.728315413,4.58255434,8.962915421
2/8/16 18:31,0.697208703,4.601696968,8.936594009
2/8/16 18:31,0.668195725,4.606482506,8.862417221
2/8/16 18:31,0.653838813,4.608875751,8.812167168
2/8/16 18:31,0.608375132,4.620839596,8.749954224
2/8/16 18:31,0.62751776,4.606482506,8.675776482
2/8/16 18:31,0.634696186,4.587339878,8.637491226
2/8/16 18:31,0.639481843,4.608875751,8.572885513
2/8/16 18:31,0.658624411,4.604089737,8.532207489
2/8/16 18:31,0.682552636,4.604089737,8.47956562
2/8/16 18:31,0.723529756,4.604089737,8.424231529
2/8/16 18:31,0.745065153,4.618446827,8.402695656
2/8/16 18:31,0.816849828,4.623232365,8.352446556
2/8/16 18:31,0.855134964,4.623232365,8.357232094
2/8/16 18:31,0.950847924,4.628017902,8.321339607
2/8/16 18:31,0.991525888,4.628017902,8.323732376
2/8/16 18:31,1.063310504,4.604089737,8.309375763
2/8/16 18:31,1.113559842,4.592125893,8.326125145
2/8/16 18:31,1.137488008,4.563411713,8.3644104
2/8/16 18:31,1.18055892,4.534698009,8.376375198
2/8/16 18:31,1.182951689,4.527519703,8.388339043
2/8/16 18:31,1.190130115,4.491328239,8.402695656
2/8/16 18:31,1.218844056,4.484149456,8.429017067
2/8/16 18:31,1.214058399,4.472185612,8.429017067
2/8/16 18:31,1.223629713,4.462614059,8.460124016
2/8/16 18:31,1.206879973,4.460221291,8.498707771
2/8/16 18:31,1.194915771,4.450650215,8.527421951
2/8/16 18:31,1.173380375,4.443471432,8.572885513
2/8/16 18:31,1.154237866,4.453042984,8.582456589
2/8/16 18:31,1.147059321,4.453042984,8.603992462
2/8/16 18:31,1.144666553,4.457828522,8.632705688
2/8/16 18:31,1.115952611,4.469792843,8.644669533
2/8/16 18:31,1.082453132,4.436293125,8.656634331
2/8/16 18:31,1.044167995,4.436293125,8.68774128
2/8/16 18:31,0.998704374,4.407579422,8.682954788
2/8/16 18:31,0.95802635,4.393222332,8.694919586
2/8/16 18:31,0.955633521,4.378865242,8.733204842
2/8/16 18:31,0.953240693,4.378865242,8.749954224
2/8/16 18:31,0.946062267,4.395615101,8.754739761
2/8/16 18:31,0.977168918,4.407579422,8.740383148
2/8/16 18:31,0.967597663,4.417150497,8.737990379
2/8/16 18:31,0.950847924,4.455435753,8.692526817
2/8/16 18:31,0.931705296,4.479363918,8.654241562
2/8/16 18:31,0.898205817,4.472185612,8.618349075
2/8/16 18:31,0.881456018,4.496113777,8.608778
2/8/16 18:31,0.821635485,4.505984306,8.553742409
2/8/16 18:31,0.821635485,4.515555382,8.515457153
2/8/16 18:31,0.790528774,4.513162613,8.486743927
2/8/16 18:31,0.773779035,4.522733688,8.452944756
2/8/16 18:31,0.754636467,4.522733688,8.419445992
2/8/16 18:31,0.768993378,4.558626175,8.452944756
2/8/16 18:31,0.754636467,4.568197727,8.477172852
2/8/16 18:31,0.761814892,4.58255434,8.532207489
2/8/16 18:31,0.745065153,4.61126852,8.627920151
2/8/16 18:31,0.752243638,4.66151762,8.702097893
2/8/16 18:31,0.74985081,4.66151762,8.78584671
2/8/16 18:31,0.754636467,4.651946545,8.850452423
2/8/16 18:31,0.773779035,4.625625134,8.924630165
2/8/16 18:31,0.788135946,4.608875751,8.998807907
2/8/16 18:31,0.802492917,4.549055099,9.049356461
2/8/16 18:31,0.824028313,4.527519703,9.097212791
2/8/16 18:31,0.82881397,4.465006828,9.137890816
2/8/16 18:31,0.855134964,4.414757729,9.188139915
2/8/16 18:31,0.926919699,4.364508629,9.255139351
2/8/16 18:31,0.929312468,4.338187218,9.291030884
2/8/16 18:31,0.967597663,4.299902439,9.317352295
2/8/16 18:31,1.013061285,4.280759811,9.329316139
2/8/16 18:31,1.075274706,4.254438877,9.343673706
2/8/16 18:31,1.127916813,4.254438877,9.343673706
2/8/16 18:31,1.182951689,4.254438877,9.341280937
2/8/16 18:31,1.266999602,4.244867325,9.358030319
2/8/16 18:31,1.307677627,4.242474556,9.365208626
2/8/16 18:31,1.360319614,4.237689018,9.346066475
2/8/16 18:31,1.410568953,4.220939159,9.343673706
2/8/16 18:31,1.44646132,4.223331928,9.348459244
2/8/16 18:31,1.484746456,4.192225456,9.307781219
2/8/16 18:31,1.484746456,4.197010994,9.293423653
2/8/16 18:31,1.47756803,4.206582069,9.281459808
2/8/16 18:31,1.482353687,4.189832687,9.286245346
2/8/16 18:31,1.475175142,4.206582069,9.259924889
2/8/16 18:31,1.489532113,4.206582069,9.264710426
2/8/16 18:31,1.489532113,4.201796532,9.269495964
2/8/16 18:31,1.491924882,4.187439442,9.295816422
2/8/16 18:31,1.458425403,4.180261135,9.329316139
2/8/16 18:31,1.410568953,4.180261135,9.302995682
2/8/16 18:31,1.367498159,4.199403763,9.295816422
2/8/16 18:31,1.293320656,4.197010994,9.274281502
2/8/16 18:31,1.247856975,4.223331928,9.224032402
2/8/16 18:31,1.182951689,4.232903481,9.180961609
2/8/16 18:31,1.123131156,4.249652863,9.145069122
2/8/16 18:31,1.065703392,4.273581028,9.123533249
2/8/16 18:31,1.027418256,4.304687977,9.116354942
2/8/16 18:31,0.996311545,4.331008911,9.123533249
2/8/16 18:31,0.960419178,4.34775877,9.133105278
2/8/16 18:31,0.94127661,4.378865242,9.137890816
2/8/16 18:31,0.907777071,4.407579422,9.135498047
2/8/16 18:31,0.874277592,4.424329281,9.12831974
2/8/16 18:31,0.840778053,4.429114819,9.106783867
2/8/16 18:31,0.821635485,4.407579422,9.085248947
2/8/16 18:31,0.812064171,4.402793884,9.051749229
2/8/16 18:31,0.807278514,4.388436794,9.044570923
2/8/16 18:31,0.752243638,4.381258488,9.049356461
2/8/16 18:31,0.747457981,4.371686935,9.051749229
2/8/16 18:31,0.74985081,4.381258488,9.039784431
2/8/16 18:31,0.742672324,4.366901398,9.001200676
2/8/16 18:31,0.754636467,4.366901398,8.984451294
2/8/16 18:32,0.773779035,4.388436794,8.907880783
2/8/16 18:32,0.783350289,4.39800787,8.840881348
2/8/16 18:32,0.831206739,4.421936035,8.790632248
2/8/16 18:32,0.816849828,4.41236496,8.742775917
2/8/16 18:32,0.835992396,4.421936035,8.711668968
2/8/16 18:32,0.82881397,4.431507587,8.6590271
2/8/16 18:32,0.879063189,4.429114819,8.60159874
2/8/16 18:32,0.931705296,4.455435753,8.577671051
2/8/16 18:32,0.967597663,4.479363918,8.541778564
2/8/16 18:32,1.008275628,4.491328239,8.50110054
2/8/16 18:32,1.039382339,4.513162613,8.440980911
2/8/16 18:32,1.089631557,4.544269085,8.4146595
2/8/16 18:32,1.130309582,4.572983265,8.354839325
2/8/16 18:32,1.130309582,4.637589455,8.309375763
2/8/16 18:32,1.118345499,4.635196686,8.280661583
2/8/16 18:32,1.137488008,4.666303158,8.218448639
2/8/16 18:32,1.115952611,4.680660248,8.175377846
2/8/16 18:32,1.106381416,4.687838554,8.163414001
2/8/16 18:32,1.075274706,4.692624092,8.129914284
2/8/16 18:32,1.065703392,4.697410107,8.117949486
2/8/16 18:32,1.065703392,4.695017338,8.115556717
2/8/16 18:32,1.03698957,4.659124851,8.132307053
2/8/16 18:32,0.991525888,4.66151762,8.177770615
2/8/16 18:32,0.95802635,4.639982224,8.225626945
2/8/16 18:32,0.938883781,4.623232365,8.275876045
2/8/16 18:32,0.891027331,4.592125893,8.328517914
2/8/16 18:32,0.84556371,4.556233406,8.378767967
2/8/16 18:32,0.79770726,4.527519703,8.436195374
2/8/16 18:32,0.778564692,4.496113777,8.474779129
2/8/16 18:32,0.728315413,4.484149456,8.525029182
2/8/16 18:32,0.682552636,4.469792843,8.560921669
2/8/16 18:32,0.641874671,4.462614059,8.60159874
2/8/16 18:32,0.610767961,4.465006828,8.603992462
2/8/16 18:32,0.572482824,4.472185612,8.637491226
2/8/16 18:32,0.553340256,4.476971149,8.635098457
2/8/16 18:32,0.536590457,4.462614059,8.673383713
2/8/16 18:32,0.500698149,4.484149456,8.6590271
2/8/16 18:32,0.512662232,4.448257446,8.675776482
2/8/16 18:32,0.479162723,4.462614059,8.709276199
2/8/16 18:32,0.464805812,4.455435753,8.697312355
2/8/16 18:32,0.455234498,4.441078663,8.70688343
2/8/16 18:32,0.464805812,4.453042984,8.718847275
2/8/16 18:32,0.445663214,4.433900356,8.711668968
2/8/16 18:32,0.479162723,4.421936035,8.704490662
2/8/16 18:32,0.488734037,4.424329281,8.692526817
2/8/16 18:32,0.538983285,4.438685894,8.692526817
2/8/16 18:32,0.538983285,4.445864677,8.682954788
2/8/16 18:32,0.562911511,4.445864677,8.668598175
2/8/16 18:32,0.570089996,4.455435753,8.675776482
2/8/16 18:32,0.591625392,4.472185612,8.668598175
2/8/16 18:32,0.605982363,4.491328239,8.670990944
2/8/16 18:32,0.615553618,4.517948151,8.68774128
2/8/16 18:32,0.637089014,4.525126934,8.654241562
2/8/16 18:32,0.608375132,4.508377075,8.666205406
2/8/16 18:32,0.656231582,4.513162613,8.670990944
2/8/16 18:32,0.634696186,4.517948151,8.663812637
2/8/16 18:32,0.658624411,4.510769844,8.642276764
2/8/16 18:32,0.656231582,4.532305241,8.649456024
2/8/16 18:32,0.661017239,4.537090778,8.639883995
2/8/16 18:32,0.677767038,4.549055099,8.594420433
2/8/16 18:32,0.672981381,4.546662331,8.625527382
2/8/16 18:32,0.649053156,4.544269085,8.639883995
2/8/16 18:32,0.653838813,4.565804482,8.661419868
2/8/16 18:32,0.649053156,4.568197727,8.661419868
2/8/16 18:32,0.663410068,4.580161572,8.67816925
2/8/16 18:32,0.632303357,4.558626175,8.737990379
2/8/16 18:32,0.613160789,4.556233406,8.747561455
2/8/16 18:32,0.605982363,4.568197727,8.800203323
2/8/16 18:32,0.603589535,4.561018944,8.826524734
2/8/16 18:32,0.591625392,4.551447868,8.838488579
2/8/16 18:32,0.553340256,4.561018944,8.867202759
2/8/16 18:32,0.548554599,4.553840637,8.891130447
2/8/16 18:32,0.558125854,4.532305241,8.905488014
2/8/16 18:32,0.538983285,4.532305241,8.922237396
2/8/16 18:32,0.548554599,4.520340919,8.919844627
2/8/16 18:32,0.538983285,4.539483547,8.929415703
2/8/16 18:32,0.570089996,4.513162613,8.922237396
2/8/16 18:32,0.591625392,4.534698009,8.927022934
2/8/16 18:32,0.589232564,4.529912472,8.967700958
2/8/16 18:32,0.594018221,4.529912472,8.989236832
2/8/16 18:32,0.620339274,4.539483547,8.994022369
2/8/16 18:32,0.601196706,4.517948151,9.008378983
2/8/16 18:32,0.622732103,4.527519703,9.005986214
2/8/16 18:32,0.637089014,4.486542225,9.017950058
2/8/16 18:32,0.620339274,4.486542225,9.037391663
2/8/16 18:32,0.610767961,4.479363918,9.025128365
2/8/16 18:32,0.620339274,4.474578381,9.046963692
2/8/16 18:32,0.608375132,4.443471432,9.0421772
2/8/16 18:32,0.620339274,4.457828522,9.030213356
2/8/16 18:32,0.639481843,4.443471432,9.046963692
2/8/16 18:32,0.625124931,4.443471432,9.037391663
2/8/16 18:32,0.620339274,4.433900356,9.030213356
2/8/16 18:32,0.632303357,4.424329281,9.020342827
2/8/16 18:32,0.637089014,4.41236496,9.020342827
2/8/16 18:32,0.656231582,4.417150497,8.996415138
2/8/16 18:32,0.634696186,4.424329281,9.01316452
2/8/16 18:32,0.646660328,4.402793884,8.991629601
2/8/16 18:32,0.644267499,4.402793884,8.982057571
2/8/16 18:32,0.629910588,4.390829563,8.979664803
2/8/16 18:32,0.613160789,4.378865242,8.953344345
2/8/16 18:32,0.608375132,4.386044025,8.948558807
2/8/16 18:32,0.629910588,4.378865242,8.903095245
2/8/16 18:32,0.605982363,4.378865242,8.905488014
2/8/16 18:32,0.594018221,4.328616142,8.893523216
2/8/16 18:32,0.586839736,4.364508629,8.860024452
2/8/16 18:32,0.567697167,4.345366001,8.850452423
2/8/16 18:32,0.534197629,4.366901398,8.850452423
2/8/16 18:32,0.536590457,4.36211586,8.857631683
2/8/16 18:32,0.522233546,4.383651257,8.867202759
2/8/16 18:32,0.510269404,4.41236496,8.862417221
2/8/16 18:32,0.495912492,4.421936035,8.874381065
2/8/16 18:32,0.507876635,4.41236496,8.867202759
2/8/16 18:32,0.517447889,4.424329281,8.881559372
2/8/16 18:32,0.53180486,4.429114819,8.883952141
2/8/16 18:32,0.53180486,4.407579422,8.883952141
2/8/16 18:32,0.567697167,4.41236496,8.88634491
2/8/16 18:32,0.594018221,4.386044025,8.910273552
2/8/16 18:32,0.613160789,4.393222332,8.891130447
2/8/16 18:32,0.615553618,4.383651257,8.893523216
2/8/16 18:32,0.665802896,4.350151539,8.905488014
2/8/16 18:32,0.680159807,4.357329845,8.888737679
2/8/16 18:32,0.723529756,4.352544308,8.893523216
2/8/16 18:32,0.752243638,4.378865242,8.891130447
2/8/16 18:32,0.783350289,4.36211586,8.88634491
2/8/16 18:32,0.776171863,4.369294167,8.86480999
2/8/16 18:32,0.795314431,4.378865242,8.869595528
2/8/16 18:32,0.824028313,4.371686935,8.86480999
2/8/16 18:32,0.847956538,4.364508629,8.867202759
2/8/16 18:32,0.855134964,4.374079704,8.874381065
2/8/16 18:32,0.87667042,4.371686935,8.879166603
2/8/16 18:32,0.869491935,4.352544308,8.891130447
2/8/16 18:32,0.879063189,4.36211586,8.881559372
2/8/16 18:32,0.859920621,4.342973232,8.88634491
2/8/16 18:32,0.852742195,4.350151539,8.879166603
2/8/16 18:32,0.847956538,4.338187218,8.869595528
2/8/16 18:32,0.824028313,4.345366001,8.869595528
2/8/16 18:32,0.833599567,4.338187218,8.888737679
2/8/16 18:32,0.795314431,4.36211586,8.900702477
2/8/16 18:32,0.78095752,4.34775877,8.919844627
2/8/16 18:32,0.800100088,4.338187218,8.919844627
2/8/16 18:32,0.757029235,4.359723091,8.938986778
2/8/16 18:32,0.735493839,4.340580463,8.972486496
2/8/16 18:32,0.709172785,4.352544308,9.003593445
2/8/16 18:32,0.697208703,4.33340168,9.015557289
2/8/16 18:32,0.692423046,4.335794449,9.001200676
2/8/16 18:32,0.704387188,4.319045067,8.986844063
2/8/16 18:32,0.694815874,4.311866283,8.986844063
2/8/16 18:32,0.735493839,4.29750967,8.979664803
2/8/16 18:32,0.711565614,4.29750967,8.982057571
2/8/16 18:32,0.735493839,4.302295208,8.989236832
2/8/16 18:32,0.752243638,4.304687977,8.991629601
2/8/16 18:32,0.785743117,4.304687977,8.982057571
2/8/16 18:32,0.802492917,4.292723656,8.965308189
2/8/16 18:32,0.819242656,4.319045067,8.962915421
2/8/16 18:32,0.840778053,4.316651821,8.970093727
2/8/16 18:32,0.864706278,4.328616142,8.936594009
2/8/16 18:32,0.869491935,4.314259052,8.922237396
2/8/16 18:32,0.891027331,4.302295208,8.903095245
2/8/16 18:32,0.900598645,4.326223373,8.888737679
2/8/16 18:32,0.914955556,4.314259052,8.879166603
2/8/16 18:32,0.917348385,4.309473515,8.86480999
2/8/16 18:32,0.919741213,4.302295208,8.840881348
2/8/16 18:32,0.929312468,4.304687977,8.840881348
2/8/16 18:32,0.94127661,4.34775877,8.843274117
2/8/16 18:32,0.929312468,4.352544308,8.804988861
2/8/16 18:32,0.948455095,4.371686935,8.778668404
2/8/16 18:32,0.948455095,4.381258488,8.797810555
2/8/16 18:32,0.948455095,4.381258488,8.802596092
2/8/16 18:32,0.929312468,4.39800787,8.747561455
2/8/16 18:32,0.905384243,4.383651257,8.75713253
2/8/16 18:32,0.898205817,4.402793884,8.752346992
2/8/16 18:32,0.891027331,4.400400639,8.769096375
2/8/16 18:32,0.867099106,4.407579422,8.730812073
2/8/16 18:32,0.843170881,4.39800787,8.740383148
2/8/16 18:32,0.871884763,4.395615101,8.733204842
2/8/16 18:32,0.87667042,4.414757729,8.726025581
2/8/16 18:32,0.855134964,4.419543266,8.740383148
2/8/16 18:32,0.864706278,4.42672205,8.718847275
2/8/16 18:32,0.87667042,4.409972191,8.697312355
2/8/16 18:32,0.87667042,4.429114819,8.6590271
2/8/16 18:32,0.864706278,4.417150497,8.661419868
2/8/16 18:32,0.840778053,4.419543266,8.682954788
2/8/16 18:32,0.835992396,4.436293125,8.632705688
2/8/16 18:32,0.831206739,4.443471432,8.644669533
2/8/16 18:32,0.82881397,4.460221291,8.625527382
2/8/16 18:32,0.812064171,4.457828522,8.603992462
2/8/16 18:32,0.792921603,4.457828522,8.589634895
2/8/16 18:32,0.821635485,4.467400074,8.592027664
2/8/16 18:32,0.821635485,4.486542225,8.565707207
2/8/16 18:32,0.824028313,4.503591537,8.558527946
2/8/16 18:32,0.835992396,4.503591537,8.534600258
2/8/16 18:32,0.835992396,4.513162613,8.52981472
2/8/16 18:32,0.82881397,4.527519703,8.534600258
2/8/16 18:32,0.82881397,4.517948151,8.517850876
2/8/16 18:32,0.82881397,4.546662331,8.489136696
2/8/16 18:32,0.84556371,4.558626175,8.464909554
2/8/16 18:32,0.855134964,4.544269085,8.448159218
2/8/16 18:32,0.862313449,4.568197727,8.460124016
2/8/16 18:32,0.867099106,4.577768803,8.42183876
2/8/16 18:32,0.859920621,4.551447868,8.402695656
2/8/16 18:32,0.852742195,4.544269085,8.390731812
2/8/16 18:32,0.852742195,4.553840637,8.388339043
2/8/16 18:32,0.833599567,4.563411713,8.352446556
2/8/16 18:32,0.84556371,4.561018944,8.330910683
2/8/16 18:32,0.84556371,4.563411713,8.304590225
2/8/16 18:32,0.82881397,4.558626175,8.314161301
2/8/16 18:32,0.835992396,4.570590496,8.297411919
2/8/16 18:32,0.821635485,4.565804482,8.309375763
2/8/16 18:32,0.847956538,4.575376034,8.314161301
2/8/16 18:32,0.812064171,4.592125893,8.318946838
2/8/16 18:32,0.814456999,4.584947109,8.299804688
2/8/16 18:32,0.807278514,4.572983265,8.306982994
2/8/16 18:32,0.802492917,4.58255434,8.283054352
2/8/16 18:32,0.821635485,4.572983265,8.275876045
2/8/16 18:32,0.809671342,4.572983265,8.280661583
2/8/16 18:32,0.816849828,4.563411713,8.29501915
2/8/16 18:32,0.840778053,4.563411713,8.29501915
2/8/16 18:32,0.835992396,4.549055099,8.309375763
2/8/16 18:32,0.840778053,4.549055099,8.31655407
2/8/16 18:32,0.864706278,4.546662331,8.323732376
2/8/16 18:32,0.883848846,4.515555382,8.326125145
2/8/16 18:32,0.900598645,4.556233406,8.330910683
2/8/16 18:32,0.888634503,4.558626175,8.347661018
2/8/16 18:32,0.926919699,4.551447868,8.340482712
2/8/16 18:32,0.948455095,4.551447868,8.354839325
2/8/16 18:32,1.001097202,4.549055099,8.390731812
2/8/16 18:32,1.029811025,4.553840637,8.397910118
2/8/16 18:32,1.025025368,4.541876316,8.402695656
2/8/16 18:32,1.051346421,4.544269085,8.407481194
2/8/16 18:32,1.056132078,4.534698009,8.419445992
2/8/16 18:32,1.063310504,4.534698009,8.424231529
2/8/16 18:32,1.048953652,4.541876316,8.419445992
2/8/16 18:32,1.032203913,4.534698009,8.412266731
2/8/16 18:32,1.015454054,4.513162613,8.407481194
2/8/16 18:32,1.046560764,4.517948151,8.419445992
2/8/16 18:32,1.034596682,4.515555382,8.407481194
2/8/16 18:32,1.051346421,4.510769844,8.419445992
2/8/16 18:32,1.032203913,4.498506546,8.417053223
2/8/16 18:32,1.015454054,4.508377075,8.42183876
2/8/16 18:32,1.008275628,4.505984306,8.44337368
2/8/16 18:33,0.993918717,4.517948151,8.433802605
2/8/16 18:33,0.962812007,4.515555382,8.438588142
2/8/16 18:33,0.931705296,4.529912472,8.433802605
2/8/16 18:33,0.922134042,4.534698009,8.448159218
2/8/16 18:33,0.914955556,4.537090778,8.455337524
2/8/16 18:33,0.912562728,4.549055099,8.44337368
2/8/16 18:33,0.9101699,4.549055099,8.424231529
2/8/16 18:33,0.917348385,4.568197727,8.445766449
2/8/16 18:33,0.948455095,4.551447868,8.448159218
2/8/16 18:33,0.926919699,4.558626175,8.417053223
2/8/16 18:33,0.919741213,4.553840637,8.4146595
2/8/16 18:33,0.936490953,4.556233406,8.419445992
2/8/16 18:33,0.936490953,4.558626175,8.429017067
2/8/16 18:33,0.94127661,4.558626175,8.412266731
2/8/16 18:33,0.94127661,4.561018944,8.424231529
2/8/16 18:33,0.950847924,4.556233406,8.400302887
2/8/16 18:33,0.943669438,4.563411713,8.39312458
2/8/16 18:33,0.962812007,4.570590496,8.405088425
2/8/16 18:33,0.981954575,4.568197727,8.409873962
2/8/16 18:33,0.97238332,4.572983265,8.433802605
2/8/16 18:33,0.97238332,4.577768803,8.440980911
2/8/16 18:33,0.984347403,4.589733124,8.47238636
2/8/16 18:33,0.98913306,4.587339878,8.464909554
2/8/16 18:33,0.986740232,4.58255434,8.503493309
2/8/16 18:33,0.98913306,4.575376034,8.50110054
2/8/16 18:33,0.991525888,4.570590496,8.496315002
2/8/16 18:33,0.996311545,4.568197727,8.527421951
2/8/16 18:33,1.017846942,4.551447868,8.556135178
2/8/16 18:33,1.044167995,4.539483547,8.534600258
2/8/16 18:33,1.029811025,4.508377075,8.558527946
2/8/16 18:33,1.046560764,4.522733688,8.556135178
2/8/16 18:33,1.044167995,4.529912472,8.603992462
2/8/16 18:33,1.053739309,4.527519703,8.603992462
2/8/16 18:33,1.068096161,4.513162613,8.603992462
2/8/16 18:33,1.058524966,4.517948151,8.611170769
2/8/16 18:33,1.051346421,4.493721008,8.613563538
2/8/16 18:33,1.053739309,4.479363918,8.589634895
2/8/16 18:33,1.041775107,4.496113777,8.582456589
2/8/16 18:33,1.027418256,4.522733688,8.596813202
2/8/16 18:33,1.022632599,4.527519703,8.611170769
2/8/16 18:33,1.003489971,4.517948151,8.620741844
2/8/16 18:33,1.003489971,4.532305241,8.613563538
2/8/16 18:33,1.005882859,4.517948151,8.611170769
2/8/16 18:33,0.969990492,4.517948151,8.603992462
2/8/16 18:33,0.98913306,4.508377075,8.647063255
2/8/16 18:33,0.981954575,4.532305241,8.637491226
2/8/16 18:33,0.960419178,4.522733688,8.625527382
2/8/16 18:33,0.95802635,4.534698009,8.608778
2/8/16 18:33,0.97238332,4.544269085,8.589634895
2/8/16 18:33,0.955633521,4.563411713,8.587242126
2/8/16 18:33,0.946062267,4.539483547,8.582456589
2/8/16 18:33,0.926919699,4.537090778,8.570492744
2/8/16 18:33,0.936490953,4.529912472,8.560921669
2/8/16 18:33,0.931705296,4.551447868,8.541778564
2/8/16 18:33,0.943669438,4.532305241,8.560921669
2/8/16 18:33,0.938883781,4.541876316,8.55134964
2/8/16 18:33,0.938883781,4.534698009,8.520243645
2/8/16 18:33,0.943669438,4.539483547,8.525029182
2/8/16 18:33,0.948455095,4.539483547,8.541778564
2/8/16 18:33,0.92452687,4.532305241,8.556135178
2/8/16 18:33,0.931705296,4.522733688,8.534600258
2/8/16 18:33,0.934098125,4.534698009,8.556135178
2/8/16 18:33,0.95802635,4.553840637,8.539385796
2/8/16 18:33,0.965204835,4.561018944,8.536993027
2/8/16 18:33,0.991525888,4.544269085,8.560921669
2/8/16 18:33,0.986740232,4.520340919,8.539385796
2/8/16 18:33,0.984347403,4.537090778,8.556135178
2/8/16 18:33,0.97238332,4.525126934,8.558527946
2/8/16 18:33,0.986740232,4.522733688,8.60159874
2/8/16 18:33,0.998704374,4.496113777,8.606385231
2/8/16 18:33,1.003489971,4.510769844,8.613563538
2/8/16 18:33,1.013061285,4.493721008,8.63031292
2/8/16 18:33,1.027418256,4.501198292,8.635098457
2/8/16 18:33,1.029811025,4.496113777,8.649456024
2/8/16 18:33,1.053739309,4.522733688,8.673383713
2/8/16 18:33,1.063310504,4.505984306,8.682954788
2/8/16 18:33,1.068096161,4.491328239,8.694919586
2/8/16 18:33,1.080060363,4.503591537,8.742775917
2/8/16 18:33,1.087238789,4.493721008,8.718847275
2/8/16 18:33,1.094417214,4.474578381,8.704490662
2/8/16 18:33,1.108774185,4.460221291,8.72841835
2/8/16 18:33,1.135095239,4.486542225,8.709276199
2/8/16 18:33,1.139880896,4.486542225,8.716454506
2/8/16 18:33,1.137488008,4.448257446,8.716454506
2/8/16 18:33,1.115952611,4.42672205,8.711668968
2/8/16 18:33,1.118345499,4.462614059,8.697312355
2/8/16 18:33,1.101595759,4.457828522,8.704490662
2/8/16 18:33,1.108774185,4.436293125,8.67816925
2/8/16 18:33,1.099202871,4.424329281,8.663812637
2/8/16 18:33,1.096810102,4.443471432,8.680562019
2/8/16 18:33,1.08484602,4.431507587,8.666205406
2/8/16 18:33,1.092024446,4.443471432,8.673383713
2/8/16 18:33,1.08484602,4.453042984,8.656634331
2/8/16 18:33,1.051346421,4.450650215,8.651848793
2/8/16 18:33,1.022632599,4.476971149,8.642276764
2/8/16 18:33,1.015454054,4.445864677,8.635098457
2/8/16 18:33,1.015454054,4.450650215,8.611170769
2/8/16 18:33,1.003489971,4.460221291,8.611170769
2/8/16 18:33,1.013061285,4.481756687,8.594420433
2/8/16 18:33,1.008275628,4.462614059,8.558527946
2/8/16 18:33,1.001097202,4.472185612,8.570492744
2/8/16 18:33,1.005882859,4.441078663,8.563314438
2/8/16 18:33,1.001097202,4.457828522,8.563314438
2/8/16 18:33,1.008275628,4.462614059,8.589634895
2/8/16 18:33,0.981954575,4.457828522,8.572885513
2/8/16 18:33,0.986740232,4.481756687,8.553742409
2/8/16 18:33,0.97238332,4.481756687,8.553742409
2/8/16 18:33,0.981954575,4.508377075,8.570492744
2/8/16 18:33,1.001097202,4.491328239,8.560921669
2/8/16 18:33,0.993918717,4.503591537,8.546564102
2/8/16 18:33,0.977168918,4.508377075,8.553742409
2/8/16 18:33,0.993918717,4.486542225,8.553742409
2/8/16 18:33,0.979561746,4.503591537,8.577671051
2/8/16 18:33,0.986740232,4.513162613,8.560921669
2/8/16 18:33,0.955633521,4.508377075,8.556135178
2/8/16 18:33,0.962812007,4.503591537,8.546564102
2/8/16 18:33,0.955633521,4.501198292,8.553742409
2/8/16 18:33,0.965204835,4.481756687,8.548956871
2/8/16 18:33,0.943669438,4.488935471,8.565707207
2/8/16 18:33,0.929312468,4.493721008,8.568099976
2/8/16 18:33,0.9101699,4.517948151,8.548956871
2/8/16 18:33,0.92452687,4.515555382,8.553742409
2/8/16 18:33,0.938883781,4.505984306,8.558527946
2/8/16 18:33,0.912562728,4.517948151,8.548956871
2/8/16 18:33,0.936490953,4.498506546,8.536993027
2/8/16 18:33,0.926919699,4.496113777,8.520243645
2/8/16 18:33,0.943669438,4.501198292,8.525029182
2/8/16 18:33,0.936490953,4.479363918,8.52981472
2/8/16 18:33,0.9101699,4.481756687,8.55134964
2/8/16 18:33,0.919741213,4.474578381,8.560921669
2/8/16 18:33,0.907777071,4.465006828,8.572885513
2/8/16 18:33,0.907777071,4.472185612,8.565707207
2/8/16 18:33,0.922134042,4.493721008,8.570492744
2/8/16 18:33,0.9101699,4.491328239,8.568099976
2/8/16 18:33,0.92452687,4.505984306,8.599205971
2/8/16 18:33,0.934098125,4.491328239,8.596813202
2/8/16 18:33,0.953240693,4.525126934,8.594420433
2/8/16 18:33,0.929312468,4.503591537,8.611170769
2/8/16 18:33,0.926919699,4.517948151,8.625527382
2/8/16 18:33,0.926919699,4.520340919,8.615956306
2/8/16 18:33,0.929312468,4.503591537,8.60159874
2/8/16 18:33,0.919741213,4.474578381,8.603992462
2/8/16 18:33,0.950847924,4.481756687,8.615956306
2/8/16 18:33,0.967597663,4.474578381,8.606385231
2/8/16 18:33,0.981954575,4.469792843,8.589634895
2/8/16 18:33,0.986740232,4.486542225,8.563314438
2/8/16 18:33,1.015454054,4.462614059,8.558527946
2/8/16 18:33,1.001097202,4.476971149,8.527421951
2/8/16 18:33,0.98913306,4.472185612,8.522636414
2/8/16 18:33,1.027418256,4.481756687,8.522636414
2/8/16 18:33,1.029811025,4.484149456,8.493922234
2/8/16 18:33,1.039382339,4.503591537,8.477172852
2/8/16 18:33,1.020239711,4.481756687,8.460124016
2/8/16 18:33,1.048953652,4.488935471,8.462516785
2/8/16 18:33,1.044167995,4.486542225,8.452944756
2/8/16 18:33,1.077667475,4.486542225,8.419445992
2/8/16 18:33,1.070489049,4.479363918,8.419445992
2/8/16 18:33,1.027418256,4.486542225,8.402695656
2/8/16 18:33,1.053739309,4.488935471,8.405088425
2/8/16 18:33,1.039382339,4.488935471,8.42183876
2/8/16 18:33,1.039382339,4.486542225,8.433802605
2/8/16 18:33,1.048953652,4.481756687,8.448159218
2/8/16 18:33,1.041775107,4.450650215,8.440980911
2/8/16 18:33,1.034596682,4.465006828,8.47238636
2/8/16 18:33,1.013061285,4.469792843,8.493922234
2/8/16 18:33,1.005882859,4.433900356,8.544171333
2/8/16 18:33,1.010668516,4.421936035,8.584849358
2/8/16 18:33,0.979561746,4.419543266,8.627920151
2/8/16 18:33,0.969990492,4.419543266,8.6590271
2/8/16 18:33,0.98913306,4.419543266,8.668598175
2/8/16 18:33,0.960419178,4.393222332,8.692526817
2/8/16 18:33,0.960419178,4.393222332,8.723632812
2/8/16 18:33,0.948455095,4.381258488,8.783453941
2/8/16 18:33,0.931705296,4.381258488,8.795417786
2/8/16 18:33,0.936490953,4.390829563,8.852845192
2/8/16 18:33,0.907777071,4.390829563,8.850452423
2/8/16 18:33,0.912562728,4.359723091,8.871988297
2/8/16 18:33,0.917348385,4.357329845,8.895915985
2/8/16 18:33,0.917348385,4.369294167,8.867202759
2/8/16 18:33,0.929312468,4.366901398,8.881559372
2/8/16 18:33,0.919741213,4.352544308,8.879166603
2/8/16 18:33,0.926919699,4.345366001,8.891130447
2/8/16 18:33,0.934098125,4.34775877,8.900702477
2/8/16 18:33,0.969990492,4.352544308,8.876773834
2/8/16 18:33,0.967597663,4.335794449,8.850452423
2/8/16 18:33,0.969990492,4.36211586,8.852845192
2/8/16 18:33,0.974776149,4.34775877,8.831310272
2/8/16 18:33,0.948455095,4.352544308,8.852845192
2/8/16 18:33,0.977168918,4.357329845,8.855237961
2/8/16 18:33,0.94127661,4.36211586,8.857631683
2/8/16 18:33,0.936490953,4.350151539,8.857631683
2/8/16 18:33,0.919741213,4.34775877,8.867202759
2/8/16 18:33,0.912562728,4.364508629,8.86480999
2/8/16 18:33,0.907777071,4.376472473,8.848059654
2/8/16 18:33,0.881456018,4.395615101,8.848059654
2/8/16 18:33,0.869491935,4.393222332,8.838488579
2/8/16 18:33,0.898205817,4.386044025,8.81456089
2/8/16 18:33,0.874277592,4.39800787,8.797810555
2/8/16 18:33,0.859920621,4.383651257,8.769096375
2/8/16 18:33,0.864706278,4.381258488,8.766703606
2/8/16 18:33,0.883848846,4.381258488,8.752346992
2/8/16 18:33,0.857527793,4.395615101,8.73559761
2/8/16 18:33,0.874277592,4.41236496,8.716454506
2/8/16 18:33,0.879063189,4.402793884,8.721240044
2/8/16 18:33,0.862313449,4.405186653,8.711668968
2/8/16 18:33,0.891027331,4.419543266,8.690134048
2/8/16 18:33,0.883848846,4.402793884,8.68774128
2/8/16 18:33,0.891027331,4.421936035,8.668598175
2/8/16 18:33,0.871884763,4.409972191,8.661419868
2/8/16 18:33,0.855134964,4.393222332,8.699705124
2/8/16 18:33,0.852742195,4.419543266,8.711668968
2/8/16 18:33,0.874277592,4.421936035,8.749954224
2/8/16 18:33,0.850349367,4.414757729,8.75713253
2/8/16 18:33,0.847956538,4.42672205,8.773882866
2/8/16 18:33,0.871884763,4.419543266,8.812167168
2/8/16 18:33,0.862313449,4.414757729,8.81456089
2/8/16 18:33,0.871884763,4.417150497,8.86480999
2/8/16 18:33,0.852742195,4.402793884,8.871988297
2/8/16 18:33,0.864706278,4.421936035,8.919844627
2/8/16 18:33,0.869491935,4.409972191,8.934201241
2/8/16 18:33,0.852742195,4.42672205,8.960522652
2/8/16 18:33,0.847956538,4.431507587,8.970093727
2/8/16 18:33,0.850349367,4.453042984,8.986844063
2/8/16 18:33,0.843170881,4.455435753,8.962915421
2/8/16 18:33,0.824028313,4.450650215,8.946166039
2/8/16 18:33,0.804885745,4.462614059,8.941379547
2/8/16 18:33,0.771386206,4.467400074,8.883952141
2/8/16 18:33,0.757029235,4.460221291,8.869595528
2/8/16 18:33,0.73310101,4.455435753,8.819346428
2/8/16 18:33,0.725922585,4.462614059,8.795417786
2/8/16 18:33,0.742672324,4.472185612,8.771489143
2/8/16 18:33,0.730708242,4.479363918,8.761918068
2/8/16 18:33,0.718744099,4.474578381,8.694919586
2/8/16 18:33,0.737886667,4.496113777,8.682954788
2/8/16 18:33,0.740279496,4.515555382,8.668598175
2/8/16 18:33,0.73310101,4.525126934,8.642276764
2/8/16 18:33,0.721136928,4.520340919,8.625527382
2/8/16 18:33,0.728315413,4.541876316,8.63031292
2/8/16 18:33,0.711565614,4.529912472,8.608778
2/8/16 18:33,0.682552636,4.515555382,8.608778
2/8/16 18:34,0.682552636,4.501198292,8.603992462
2/8/16 18:34,0.656231582,4.491328239,8.592027664
2/8/16 18:34,0.680159807,4.503591537,8.577671051
2/8/16 18:34,0.672981381,4.479363918,8.565707207
2/8/16 18:34,0.682552636,4.467400074,8.546564102
2/8/16 18:34,0.68524456,4.469792843,8.546564102
2/8/16 18:34,0.704387188,4.469792843,8.544171333
2/8/16 18:34,0.687637389,4.453042984,8.546564102
2/8/16 18:34,0.70199436,4.465006828,8.544171333
2/8/16 18:34,0.711565614,4.453042984,8.546564102
2/8/16 18:34,0.716351271,4.453042984,8.52981472
2/8/16 18:34,0.718744099,4.465006828,8.522636414
2/8/16 18:34,0.713958442,4.460221291,8.517850876
2/8/16 18:34,0.759422064,4.467400074,8.522636414
2/8/16 18:34,0.771386206,4.453042984,8.539385796
2/8/16 18:34,0.795314431,4.433900356,8.52981472
2/8/16 18:34,0.804885745,4.438685894,8.520243645
2/8/16 18:34,0.809671342,4.443471432,8.556135178
2/8/16 18:34,0.838385224,4.436293125,8.52981472
2/8/16 18:34,0.835992396,4.438685894,8.546564102
2/8/16 18:34,0.833599567,4.453042984,8.587242126
2/8/16 18:34,0.824028313,4.433900356,8.58006382
2/8/16 18:34,0.82881397,4.431507587,8.618349075
2/8/16 18:34,0.814456999,4.438685894,8.620741844
2/8/16 18:34,0.819242656,4.450650215,8.651848793
2/8/16 18:34,0.785743117,4.445864677,8.647063255
2/8/16 18:34,0.78095752,4.42672205,8.668598175
2/8/16 18:34,0.761814892,4.429114819,8.680562019
2/8/16 18:34,0.752243638,4.417150497,8.714061737
2/8/16 18:34,0.723529756,4.417150497,8.709276199
2/8/16 18:34,0.709172785,4.417150497,8.726025581
2/8/16 18:34,0.711565614,4.405186653,8.718847275
2/8/16 18:34,0.706780016,4.405186653,8.718847275
2/8/16 18:34,0.73310101,4.405186653,8.711668968
2/8/16 18:34,0.718744099,4.417150497,8.697312355
2/8/16 18:34,0.745065153,4.414757729,8.680562019
2/8/16 18:34,0.761814892,4.395615101,8.682954788
2/8/16 18:34,0.761814892,4.400400639,8.68774128
2/8/16 18:34,0.790528774,4.383651257,8.670990944
2/8/16 18:34,0.792921603,4.402793884,8.668598175
2/8/16 18:34,0.790528774,4.381258488,8.635098457
2/8/16 18:34,0.814456999,4.390829563,8.649456024
2/8/16 18:34,0.802492917,4.409972191,8.637491226
2/8/16 18:34,0.824028313,4.395615101,8.663812637
2/8/16 18:34,0.847956538,4.409972191,8.649456024
2/8/16 18:34,0.855134964,4.414757729,8.673383713
2/8/16 18:34,0.857527793,4.414757729,8.690134048
2/8/16 18:34,0.879063189,4.421936035,8.726025581
2/8/16 18:34,0.874277592,4.395615101,8.747561455
2/8/16 18:34,0.874277592,4.393222332,8.783453941
2/8/16 18:34,0.886241674,4.383651257,8.816953659
2/8/16 18:34,0.898205817,4.354937077,8.802596092
2/8/16 18:34,0.89342016,4.345366001,8.821739197
2/8/16 18:34,0.879063189,4.345366001,8.852845192
2/8/16 18:34,0.87667042,4.338187218,8.869595528
2/8/16 18:34,0.864706278,4.321437836,8.857631683
2/8/16 18:34,0.879063189,4.307080746,8.874381065
2/8/16 18:34,0.883848846,4.311866283,8.879166603
2/8/16 18:34,0.869491935,4.295116425,8.881559372
2/8/16 18:34,0.859920621,4.280759811,8.871988297
2/8/16 18:34,0.871884763,4.290330887,8.876773834
2/8/16 18:34,0.840778053,4.290330887,8.869595528
2/8/16 18:34,0.826421142,4.26879549,8.867202759
2/8/16 18:34,0.804885745,4.26879549,8.88634491
2/8/16 18:34,0.816849828,4.307080746,8.860024452
2/8/16 18:34,0.821635485,4.316651821,8.845666885
2/8/16 18:34,0.802492917,4.29750967,8.828917503
2/8/16 18:34,0.814456999,4.331008911,8.800203323
2/8/16 18:34,0.807278514,4.323830605,8.788239479
2/8/16 18:34,0.821635485,4.328616142,8.766703606
2/8/16 18:34,0.843170881,4.29750967,8.764310837
2/8/16 18:34,0.824028313,4.316651821,8.749954224
2/8/16 18:34,0.819242656,4.328616142,8.723632812
2/8/16 18:34,0.821635485,4.340580463,8.723632812
2/8/16 18:34,0.792921603,4.314259052,8.702097893
2/8/16 18:34,0.826421142,4.328616142,8.670990944
2/8/16 18:34,0.819242656,4.335794449,8.661419868
2/8/16 18:34,0.809671342,4.338187218,8.666205406
2/8/16 18:34,0.809671342,4.33340168,8.647063255
2/8/16 18:34,0.790528774,4.340580463,8.656634331
2/8/16 18:34,0.788135946,4.342973232,8.661419868
2/8/16 18:34,0.816849828,4.359723091,8.647063255
2/8/16 18:34,0.807278514,4.345366001,8.642276764
2/8/16 18:34,0.821635485,4.33340168,8.615956306
2/8/16 18:34,0.79770726,4.342973232,8.639883995
2/8/16 18:34,0.821635485,4.357329845,8.623134613
2/8/16 18:34,0.816849828,4.36211586,8.63031292
2/8/16 18:34,0.812064171,4.33340168,8.642276764
2/8/16 18:34,0.816849828,4.33340168,8.644669533
2/8/16 18:34,0.821635485,4.331008911,8.656634331
2/8/16 18:34,0.826421142,4.350151539,8.663812637
2/8/16 18:34,0.831206739,4.345366001,8.670990944
2/8/16 18:34,0.847956538,4.371686935,8.673383713
2/8/16 18:34,0.847956538,4.33340168,8.709276199
2/8/16 18:34,0.843170881,4.340580463,8.742775917
2/8/16 18:34,0.864706278,4.33340168,8.773882866
2/8/16 18:34,0.847956538,4.309473515,8.826524734
2/8/16 18:34,0.857527793,4.290330887,8.843274117
2/8/16 18:34,0.843170881,4.26879549,8.850452423
2/8/16 18:34,0.84556371,4.266402721,8.86480999
2/8/16 18:34,0.852742195,4.264009953,8.871988297
2/8/16 18:34,0.855134964,4.261617184,8.895915985
2/8/16 18:34,0.869491935,4.254438877,8.893523216
2/8/16 18:34,0.891027331,4.28315258,8.903095245
2/8/16 18:34,0.891027331,4.237689018,8.893523216
2/8/16 18:34,0.917348385,4.252045631,8.910273552
2/8/16 18:34,0.946062267,4.271188259,8.895915985
2/8/16 18:34,0.938883781,4.254438877,8.876773834
2/8/16 18:34,0.965204835,4.259224415,8.86480999
2/8/16 18:34,0.965204835,4.271188259,8.857631683
2/8/16 18:34,0.953240693,4.285545349,8.845666885
2/8/16 18:34,0.948455095,4.254438877,8.821739197
2/8/16 18:34,0.938883781,4.264009953,8.809774399
2/8/16 18:34,0.943669438,4.254438877,8.797810555
2/8/16 18:34,0.92452687,4.247260094,8.809774399
2/8/16 18:34,0.914955556,4.244867325,8.771489143
2/8/16 18:34,0.92452687,4.247260094,8.771489143
2/8/16 18:34,0.931705296,4.244867325,8.759525299
2/8/16 18:34,0.9101699,4.249652863,8.747561455
2/8/16 18:34,0.881456018,4.235296249,8.733204842
2/8/16 18:34,0.891027331,4.264009953,8.72841835
2/8/16 18:34,0.857527793,4.247260094,8.730812073
2/8/16 18:34,0.857527793,4.249652863,8.704490662
2/8/16 18:34,0.89342016,4.249652863,8.68774128
2/8/16 18:34,0.883848846,4.259224415,8.651848793
2/8/16 18:34,0.89342016,4.235296249,8.647063255
2/8/16 18:34,0.891027331,4.206582069,8.649456024
2/8/16 18:34,0.929312468,4.213760853,8.654241562
2/8/16 18:34,0.950847924,4.228117466,8.639883995
2/8/16 18:34,0.967597663,4.232903481,8.642276764
2/8/16 18:34,0.962812007,4.230510235,8.654241562
2/8/16 18:34,0.981954575,4.240081787,8.639883995
2/8/16 18:34,0.977168918,4.228117466,8.6590271
2/8/16 18:34,0.981954575,4.232903481,8.656634331
2/8/16 18:34,0.993918717,4.244867325,8.654241562
2/8/16 18:34,0.98913306,4.225724697,8.67816925
2/8/16 18:34,0.977168918,4.216153622,8.680562019
2/8/16 18:34,1.020239711,4.216153622,8.67816925
2/8/16 18:34,1.032203913,4.220939159,8.685347557
2/8/16 18:34,1.010668516,4.208974838,8.699705124
2/8/16 18:34,1.005882859,4.201796532,8.704490662
2/8/16 18:34,1.008275628,4.211368084,8.711668968
2/8/16 18:34,1.015454054,4.223331928,8.723632812
2/8/16 18:34,1.020239711,4.206582069,8.759525299
2/8/16 18:34,1.003489971,4.211368084,8.73559761
2/8/16 18:34,0.998704374,4.208974838,8.771489143
2/8/16 18:34,1.001097202,4.192225456,8.761918068
2/8/16 18:34,0.986740232,4.194618225,8.78584671
2/8/16 18:34,0.979561746,4.189832687,8.783453941
2/8/16 18:34,0.984347403,4.189832687,8.766703606
2/8/16 18:34,0.984347403,4.189832687,8.769096375
2/8/16 18:34,1.003489971,4.199403763,8.764310837
2/8/16 18:34,0.984347403,4.192225456,8.771489143
2/8/16 18:34,0.979561746,4.177868366,8.766703606
2/8/16 18:34,0.98913306,4.173082829,8.759525299
2/8/16 18:34,0.998704374,4.189832687,8.754739761
2/8/16 18:34,1.010668516,4.187439442,8.737990379
2/8/16 18:34,1.008275628,4.177868366,8.716454506
2/8/16 18:34,1.022632599,4.175475597,8.723632812
2/8/16 18:34,0.977168918,4.194618225,8.704490662
2/8/16 18:34,0.962812007,4.211368084,8.694919586
2/8/16 18:34,0.950847924,4.211368084,8.670990944
2/8/16 18:34,0.929312468,4.218546391,8.6590271
2/8/16 18:34,0.912562728,4.225724697,8.644669533
2/8/16 18:34,0.89342016,4.223331928,8.647063255
2/8/16 18:34,0.879063189,4.235296249,8.63031292
2/8/16 18:34,0.869491935,4.235296249,8.649456024
2/8/16 18:34,0.874277592,4.228117466,8.647063255
2/8/16 18:34,0.867099106,4.225724697,8.651848793
2/8/16 18:34,0.862313449,4.235296249,8.654241562
2/8/16 18:34,0.871884763,4.223331928,8.668598175
2/8/16 18:34,0.905384243,4.242474556,8.673383713
2/8/16 18:34,0.895812988,4.223331928,8.697312355
2/8/16 18:34,0.936490953,4.208974838,8.72841835
2/8/16 18:34,0.934098125,4.225724697,8.733204842
2/8/16 18:34,0.943669438,4.220939159,8.759525299
2/8/16 18:34,0.977168918,4.232903481,8.781061172
2/8/16 18:34,1.001097202,4.199403763,8.773882866
2/8/16 18:34,1.013061285,4.197010994,8.802596092
2/8/16 18:34,1.020239711,4.194618225,8.81456089
2/8/16 18:34,1.029811025,4.180261135,8.80738163
2/8/16 18:34,1.051346421,4.180261135,8.812167168
2/8/16 18:34,1.053739309,4.185046673,8.797810555
2/8/16 18:34,1.041775107,4.192225456,8.824131966
2/8/16 18:34,1.046560764,4.194618225,8.83609581
2/8/16 18:34,1.048953652,4.182653904,8.80738163
2/8/16 18:34,1.041775107,4.189832687,8.833703041
2/8/16 18:34,1.041775107,4.173082829,8.828917503
2/8/16 18:34,1.020239711,4.151547432,8.831310272
2/8/16 18:34,1.029811025,4.158725739,8.845666885
2/8/16 18:34,1.008275628,4.149154663,8.860024452
2/8/16 18:34,0.991525888,4.158725739,8.88634491
2/8/16 18:34,0.974776149,4.158725739,8.862417221
2/8/16 18:34,0.95802635,4.137190342,8.86480999
2/8/16 18:34,0.943669438,4.137190342,8.871988297
2/8/16 18:34,0.912562728,4.14197588,8.852845192
2/8/16 18:34,0.89342016,4.125226021,8.869595528
2/8/16 18:34,0.905384243,4.146761417,8.855237961
2/8/16 18:34,0.888634503,4.132404804,8.845666885
2/8/16 18:34,0.881456018,4.146761417,8.860024452
2/8/16 18:34,0.886241674,4.130012035,8.848059654
2/8/16 18:34,0.879063189,4.14197588,8.86480999
2/8/16 18:34,0.881456018,4.146761417,8.869595528
2/8/16 18:34,0.871884763,4.14197588,8.869595528
2/8/16 18:34,0.883848846,4.110869408,8.900702477
2/8/16 18:34,0.869491935,4.132404804,8.91505909
2/8/16 18:34,0.869491935,4.146761417,8.922237396
2/8/16 18:34,0.855134964,4.132404804,8.962915421
2/8/16 18:34,0.850349367,4.118047714,8.962915421
2/8/16 18:34,0.864706278,4.103690624,8.979664803
2/8/16 18:34,0.891027331,4.120440483,8.996415138
2/8/16 18:34,0.912562728,4.132404804,9.003593445
2/8/16 18:34,0.912562728,4.115654945,8.977272034
2/8/16 18:34,0.907777071,4.132404804,8.982057571
2/8/16 18:34,0.922134042,4.130012035,8.986844063
2/8/16 18:34,0.934098125,4.122833252,8.974879265
2/8/16 18:34,0.919741213,4.122833252,8.967700958
2/8/16 18:34,0.914955556,4.118047714,8.948558807
2/8/16 18:34,0.9101699,4.110869408,8.938986778
2/8/16 18:34,0.912562728,4.122833252,8.924630165
2/8/16 18:34,0.914955556,4.108476639,8.912666321
2/8/16 18:34,0.917348385,4.122833252,8.903095245
2/8/16 18:34,0.917348385,4.118047714,8.893523216
2/8/16 18:34,0.936490953,4.146761417,8.855237961
2/8/16 18:34,0.965204835,4.139583111,8.850452423
2/8/16 18:34,0.984347403,4.144368649,8.857631683
2/8/16 18:34,0.974776149,4.139583111,8.855237961
2/8/16 18:34,0.979561746,4.168296814,8.855237961
2/8/16 18:34,0.979561746,4.163511276,8.862417221
2/8/16 18:34,0.974776149,4.149154663,8.874381065
2/8/16 18:34,0.97238332,4.146761417,8.903095245
2/8/16 18:34,0.98913306,4.132404804,8.900702477
2/8/16 18:34,0.984347403,4.153940201,8.922237396
2/8/16 18:34,0.979561746,4.146761417,8.934201241
2/8/16 18:34,0.986740232,4.110869408,8.94377327
2/8/16 18:34,0.974776149,4.113262177,8.936594009
2/8/16 18:34,1.008275628,4.09172678,8.924630165
2/8/16 18:34,1.032203913,4.086941242,8.931808472
2/8/16 18:34,1.060917735,4.070191383,8.912666321
2/8/16 18:34,1.094417214,4.058227062,8.910273552
2/8/16 18:35,1.125523925,4.043870449,8.905488014
2/8/16 18:35,1.151844978,4.063013077,8.891130447
2/8/16 18:35,1.178166032,4.07736969,8.86480999
2/8/16 18:35,1.216451168,4.058227062,8.857631683
2/8/16 18:35,1.223629713,4.051048756,8.833703041
2/8/16 18:35,1.242772222,4.065405846,8.819346428
2/8/16 18:35,1.264606714,4.060619831,8.804988861
2/8/16 18:35,1.271785259,4.02712059,8.788239479
2/8/16 18:35,1.269392371,4.024727821,8.783453941
2/8/16 18:35,1.230808139,4.051048756,8.795417786
2/8/16 18:35,1.178166032,4.019941807,8.80738163
2/8/16 18:35,1.151844978,4.04147768,8.790632248
2/8/16 18:35,1.070489049,4.024727821,8.781061172
2/8/16 18:35,0.998704374,4.046263218,8.776275635
2/8/16 18:35,0.94127661,4.051048756,8.783453941
2/8/16 18:35,0.859920621,4.070191383,8.737990379
2/8/16 18:35,0.795314431,4.058227062,8.730812073
2/8/16 18:35,0.706780016,4.072584152,8.759525299
2/8/16 18:35,0.598803878,4.082155228,8.769096375
2/8/16 18:35,0.512662232,4.084548473,8.793025017
2/8/16 18:35,0.385842651,4.103690624,8.773882866
2/8/16 18:35,0.318843603,4.153940201,8.752346992
2/8/16 18:35,0.239880472,4.194618225,8.73559761
2/8/16 18:35,0.18005991,4.216153622,8.702097893
2/8/16 18:35,0.156131685,4.206582069,8.6590271
2/8/16 18:35,0.151346028,4.211368084,8.642276764
2/8/16 18:35,0.107976124,4.216153622,8.596813202
2/8/16 18:35,0.110368945,4.206582069,8.563314438
2/8/16 18:35,0.117547415,4.232903481,8.541778564
2/8/16 18:35,0.103190474,4.237689018,8.510671616
2/8/16 18:35,0.139381915,4.26879549,8.462516785
2/8/16 18:35,0.168095797,4.28315258,8.474779129
2/8/16 18:35,0.211166605,4.314259052,8.448159218
2/8/16 18:35,0.261415869,4.33340168,8.433802605
2/8/16 18:35,0.304486692,4.376472473,8.429017067
2/8/16 18:35,0.337986201,4.417150497,8.433802605
2/8/16 18:35,0.397806764,4.457828522,8.405088425
2/8/16 18:35,0.412163705,4.448257446,8.431409836
2/8/16 18:35,0.445663214,4.462614059,8.448159218
2/8/16 18:35,0.488734037,4.481756687,8.448159218
2/8/16 18:35,0.486341208,4.465006828,8.44337368
2/8/16 18:35,0.507876635,4.445864677,8.460124016
2/8/16 18:35,0.510269404,4.438685894,8.469993591
2/8/16 18:35,0.550947428,4.450650215,8.505886078
2/8/16 18:35,0.574875653,4.438685894,8.486743927
2/8/16 18:35,0.613160789,4.433900356,8.527421951
2/8/16 18:35,0.613160789,4.433900356,8.534600258
2/8/16 18:35,0.634696186,4.429114819,8.546564102
2/8/16 18:35,0.639481843,4.419543266,8.572885513
2/8/16 18:35,0.641874671,4.41236496,8.58006382
2/8/16 18:35,0.625124931,4.402793884,8.608778
2/8/16 18:35,0.634696186,4.366901398,8.611170769
2/8/16 18:35,0.610767961,4.354937077,8.623134613
2/8/16 18:35,0.601196706,4.33340168,8.620741844
2/8/16 18:35,0.572482824,4.342973232,8.603992462
2/8/16 18:35,0.574875653,4.316651821,8.603992462
2/8/16 18:35,0.577268481,4.29750967,8.58006382
2/8/16 18:35,0.582054079,4.278367043,8.589634895
2/8/16 18:35,0.57966131,4.275974274,8.556135178
2/8/16 18:35,0.57966131,4.280759811,8.513064384
2/8/16 18:35,0.555733085,4.271188259,8.496315002
2/8/16 18:35,0.577268481,4.261617184,8.460124016
2/8/16 18:35,0.574875653,4.271188259,8.409873962
2/8/16 18:35,0.586839736,4.273581028,8.400302887
2/8/16 18:35,0.565304339,4.264009953,8.438588142
2/8/16 18:35,0.471984267,4.261617184,8.563314438
2/8/16 18:35,0.359521598,4.247260094,8.637491226
2/8/16 18:35,0.177667081,4.252045631,8.726025581
2/8/16 18:35,0.014656039,4.261617184,8.78584671
2/8/16 18:35,-0.1265205,4.328616142,8.848059654
2/8/16 18:35,-0.241375983,4.369294167,8.869595528
2/8/16 18:35,-0.34187454,4.381258488,8.903095245
2/8/16 18:35,-0.418444872,4.409972191,8.903095245
2/8/16 18:35,-0.483350188,4.407579422,8.936594009
2/8/16 18:35,-0.521635354,4.419543266,8.953344345
2/8/16 18:35,-0.586241543,4.409972191,8.948558807
2/8/16 18:35,-0.634097993,4.400400639,8.979664803
2/8/16 18:35,-0.669990361,4.39800787,8.958129883
2/8/16 18:35,-0.689132929,4.41236496,8.936594009
2/8/16 18:35,-0.691525757,4.42672205,8.91505909
2/8/16 18:35,-0.667597532,4.450650215,8.883952141
2/8/16 18:35,-0.650847733,4.469792843,8.843274117
2/8/16 18:35,-0.626919508,4.486542225,8.828917503
2/8/16 18:35,-0.605384111,4.493721008,8.809774399
2/8/16 18:35,-0.576670229,4.510769844,8.802596092
2/8/16 18:35,-0.55992049,4.556233406,8.81456089
2/8/16 18:35,-0.507278383,4.549055099,8.819346428
2/8/16 18:35,-0.478564531,4.570590496,8.81456089
2/8/16 18:35,-0.401695103,4.599304199,8.819346428
2/8/16 18:35,-0.353838652,4.608875751,8.855237961
2/8/16 18:35,-0.320339143,4.618446827,8.840881348
2/8/16 18:35,-0.260518551,4.613661289,8.83609581
2/8/16 18:35,-0.193519533,4.628017902,8.845666885
2/8/16 18:35,-0.131306142,4.613661289,8.848059654
2/8/16 18:35,-0.107377917,4.623232365,8.857631683
2/8/16 18:35,-0.076271221,4.608875751,8.867202759
2/8/16 18:35,-0.06669993,4.620839596,8.852845192
2/8/16 18:35,-0.028414769,4.592125893,8.860024452
2/8/16 18:35,-0.004486543,4.572983265,8.857631683
2/8/16 18:35,-0.0212363,4.570590496,8.83609581
2/8/16 18:35,-0.030807592,4.563411713,8.850452423
2/8/16 18:35,-0.028414769,4.561018944,8.828917503
2/8/16 18:35,-0.040378883,4.534698009,8.826524734
2/8/16 18:35,-0.0212363,4.527519703,8.824131966
2/8/16 18:35,-0.042771704,4.498506546,8.816953659
2/8/16 18:35,-0.06669993,4.527519703,8.812167168
2/8/16 18:35,-0.109770738,4.503591537,8.83609581
2/8/16 18:35,-0.140877441,4.462614059,8.816953659
2/8/16 18:35,-0.186341062,4.453042984,8.828917503
2/8/16 18:35,-0.22941187,4.460221291,8.840881348
2/8/16 18:35,-0.231804699,4.438685894,8.826524734
2/8/16 18:35,-0.258125752,4.417150497,8.821739197
2/8/16 18:35,-0.289232433,4.383651257,8.821739197
2/8/16 18:35,-0.296410918,4.369294167,8.840881348
2/8/16 18:35,-0.329910427,4.371686935,8.855237961
2/8/16 18:35,-0.375374049,4.33340168,8.91505909
2/8/16 18:35,-0.428016156,4.352544308,8.931808472
2/8/16 18:35,-0.483350188,4.326223373,8.950951576
2/8/16 18:35,-0.502492726,4.350151539,8.984451294
2/8/16 18:35,-0.540777922,4.316651821,9.020342827
2/8/16 18:35,-0.567098975,4.350151539,9.044570923
2/8/16 18:35,-0.581455886,4.34775877,9.073284149
2/8/16 18:35,-0.5910272,4.340580463,9.106783867
2/8/16 18:35,-0.634097993,4.378865242,9.109176636
2/8/16 18:35,-0.624526739,4.376472473,9.113962173
2/8/16 18:35,-0.629312336,4.364508629,9.09960556
2/8/16 18:35,-0.617348254,4.359723091,9.101998329
2/8/16 18:35,-0.600598455,4.369294167,9.078069687
2/8/16 18:35,-0.605384111,4.359723091,9.054141998
2/8/16 18:35,-0.574277461,4.366901398,9.027522087
2/8/16 18:35,-0.533599436,4.359723091,8.984451294
2/8/16 18:35,-0.51206404,4.369294167,8.94377327
2/8/16 18:35,-0.473778874,4.34775877,8.910273552
2/8/16 18:35,-0.452243477,4.383651257,8.898308754
2/8/16 18:35,-0.432801783,4.386044025,8.848059654
2/8/16 18:35,-0.423230499,4.374079704,8.819346428
2/8/16 18:35,-0.382552534,4.400400639,8.783453941
2/8/16 18:35,-0.344267368,4.414757729,8.759525299
2/8/16 18:35,-0.329910427,4.429114819,8.737990379
2/8/16 18:35,-0.291625261,4.462614059,8.697312355
2/8/16 18:35,-0.260518551,4.450650215,8.680562019
2/8/16 18:35,-0.255732924,4.476971149,8.682954788
2/8/16 18:35,-0.224626228,4.455435753,8.675776482
2/8/16 18:35,-0.193519533,4.462614059,8.680562019
2/8/16 18:35,-0.164805666,4.431507587,8.702097893
2/8/16 18:35,-0.164805666,4.450650215,8.72841835
2/8/16 18:35,-0.138484612,4.42672205,8.742775917
2/8/16 18:35,-0.124127671,4.429114819,8.776275635
2/8/16 18:35,-0.100199446,4.395615101,8.800203323
2/8/16 18:35,-0.0738784,4.354937077,8.812167168
2/8/16 18:35,-0.071485579,4.340580463,8.833703041
2/8/16 18:35,-0.045164529,4.323830605,8.845666885
2/8/16 18:35,-0.037986059,4.307080746,8.826524734
2/8/16 18:35,-0.059521463,4.290330887,8.848059654
2/8/16 18:35,-0.033200413,4.278367043,8.860024452
2/8/16 18:35,-0.042771704,4.273581028,8.828917503
2/8/16 18:35,-0.042771704,4.230510235,8.840881348
2/8/16 18:35,-0.052342996,4.247260094,8.838488579
2/8/16 18:35,-0.0738784,4.247260094,8.826524734
2/8/16 18:35,-0.116949208,4.264009953,8.819346428
2/8/16 18:35,-0.109770738,4.285545349,8.802596092
2/8/16 18:35,-0.104985096,4.290330887,8.754739761
2/8/16 18:35,-0.131306142,4.307080746,8.718847275
2/8/16 18:35,-0.124127671,4.311866283,8.670990944
2/8/16 18:35,-0.157627195,4.304687977,8.632705688
2/8/16 18:35,-0.205483645,4.28315258,8.623134613
2/8/16 18:35,-0.219840586,4.273581028,8.599205971
2/8/16 18:35,-0.241375983,4.220939159,8.594420433
2/8/16 18:35,-0.29401809,4.177868366,8.517850876
2/8/16 18:35,-0.291625261,4.223331928,8.467600822
2/8/16 18:35,-0.32512477,4.230510235,8.405088425
2/8/16 18:35,-0.351445824,4.261617184,8.34526825
2/8/16 18:35,-0.365802765,4.290330887,8.333304405
2/8/16 18:35,-0.368195593,4.326223373,8.321339607
2/8/16 18:35,-0.408873558,4.33340168,8.314161301
2/8/16 18:35,-0.428016156,4.352544308,8.328517914
2/8/16 18:35,-0.449850649,4.354937077,8.340482712
2/8/16 18:35,-0.471386075,4.321437836,8.326125145
2/8/16 18:35,-0.440279365,4.295116425,8.342875481
2/8/16 18:35,-0.445065022,4.290330887,8.354839325
2/8/16 18:35,-0.440279365,4.278367043,8.34526825
2/8/16 18:35,-0.430408984,4.285545349,8.362017632
2/8/16 18:35,-0.382552534,4.252045631,8.342875481
2/8/16 18:35,-0.372981221,4.247260094,8.321339607
2/8/16 18:35,-0.370588422,4.223331928,8.29501915
2/8/16 18:35,-0.344267368,4.240081787,8.285447121
2/8/16 18:35,-0.337088883,4.211368084,8.235198021
2/8/16 18:35,-0.305982202,4.218546391,8.251948357
2/8/16 18:35,-0.296410918,4.256831646,8.223234177
2/8/16 18:35,-0.301196545,4.235296249,8.199305534
2/8/16 18:35,-0.291625261,4.242474556,8.213663101
2/8/16 18:35,-0.279661149,4.228117466,8.244769096
2/8/16 18:35,-0.279661149,4.254438877,8.249555588
2/8/16 18:35,-0.279661149,4.211368084,8.256733894
2/8/16 18:35,-0.265304208,4.211368084,8.280661583
2/8/16 18:35,-0.253340095,4.218546391,8.285447121
2/8/16 18:35,-0.236590341,4.180261135,8.309375763
2/8/16 18:35,-0.224626228,4.17069006,8.323732376
2/8/16 18:35,-0.243768811,4.163511276,8.366803169
2/8/16 18:35,-0.238983154,4.161118507,8.424231529
2/8/16 18:35,-0.258125752,4.14197588,8.445766449
2/8/16 18:35,-0.282053977,4.134797573,8.517850876
2/8/16 18:35,-0.291625261,4.125226021,8.553742409
2/8/16 18:35,-0.279661149,4.084548473,8.556135178
2/8/16 18:35,-0.289232433,4.072584152,8.575278282
2/8/16 18:35,-0.296410918,4.048655987,8.556135178
2/8/16 18:35,-0.305982202,4.039084435,8.556135178
2/8/16 18:35,-0.322731942,4.017549038,8.539385796
2/8/16 18:35,-0.322731942,3.99601388,8.496315002
2/8/16 18:35,-0.34187454,3.988835335,8.47238636
2/8/16 18:35,-0.35862428,3.979264021,8.42183876
2/8/16 18:35,-0.387338162,3.98165679,8.381160736
2/8/16 18:35,-0.43758744,3.98165679,8.314161301
2/8/16 18:35,-0.500099957,3.979264021,8.280661583
2/8/16 18:35,-0.579063058,3.967299938,8.242376328
2/8/16 18:35,-0.614955425,3.964907169,8.201698303
2/8/16 18:35,-0.717846811,3.955335855,8.161020279
2/8/16 18:35,-0.801595569,3.955335855,8.141878128
2/8/16 18:35,-0.880558729,3.940979004,8.10837841
2/8/16 18:35,-0.930808008,3.9625144,8.086843491
2/8/16 18:35,-1.005284667,3.955335855,8.084450722
2/8/16 18:35,-1.060319543,3.94815731,8.074878693
2/8/16 18:35,-1.089033365,3.926322937,8.041379929
2/8/16 18:35,-1.110568762,3.928715706,8.055736542
2/8/16 18:35,-1.117747307,3.871287823,8.067700386
2/8/16 18:35,-1.146461129,3.844966888,8.089236259
2/8/16 18:35,-1.12971139,3.773182154,8.122735977
2/8/16 18:35,-1.103390336,3.718147278,8.139485359
2/8/16 18:35,-1.055533886,3.670290947,8.151449203
2/8/16 18:35,-1.055533886,3.639184237,8.163414001
2/8/16 18:35,-1.031605721,3.588934898,8.199305534
2/8/16 18:35,-0.9906286,3.533900023,8.211270332
2/8/16 18:35,-1.007677436,3.498007536,8.26630497
2/8/16 18:35,-0.940379322,3.498007536,8.29501915
2/8/16 18:35,-0.930808008,3.457329512,8.318946838
2/8/16 18:35,-0.890130043,3.42622304,8.3644104
2/8/16 18:35,-0.86380899,3.428615808,8.376375198
2/8/16 18:35,-0.827916622,3.392723322,8.436195374
2/8/16 18:35,-0.839880765,3.390330553,8.491529465
2/8/16 18:35,-0.837487936,3.363710403,8.541778564
2/8/16 18:36,-0.820738196,3.339782238,8.613563538
2/8/16 18:36,-0.832702279,3.32063961,8.668598175
2/8/16 18:36,-0.815952539,3.306282759,8.702097893
2/8/16 18:36,-0.815952539,3.279961586,8.752346992
2/8/16 18:36,-0.808774054,3.234498024,8.804988861
2/8/16 18:36,-0.792024314,3.210569859,8.857631683
2/8/16 18:36,-0.784845829,3.177070379,8.91505909
2/8/16 18:36,-0.760917604,3.16032052,8.977272034
2/8/16 18:36,-0.772881687,3.138785124,9.010771751
2/8/16 18:36,-0.756131947,3.083750248,9.049356461
2/8/16 18:36,-0.784845829,3.06460762,9.037391663
2/8/16 18:36,-0.808774054,3.06460762,9.068498611
2/8/16 18:36,-0.859023333,3.014358282,9.104391098
2/8/16 18:36,-0.859023333,2.978466034,9.123533249
2/8/16 18:36,-0.870987415,2.952144861,9.14985466
2/8/16 18:36,-0.921236694,2.921038151,9.190532684
2/8/16 18:36,-0.945164919,2.863610506,9.219246864
2/8/16 18:36,-1.00049901,2.844467878,9.235996246
2/8/16 18:36,-1.041176915,2.801098108,9.235996246
2/8/16 18:36,-1.100997567,2.746062994,9.233603477
2/8/16 18:36,-1.156032443,2.712563515,9.212067604
2/8/16 18:36,-1.201496124,2.669492722,9.185747147
2/8/16 18:36,-1.270887971,2.647957325,9.185747147
2/8/16 18:36,-1.330708504,2.597707987,9.192925453
2/8/16 18:36,-1.38574338,2.578565598,9.207282066
2/8/16 18:36,-1.421635747,2.55942297,9.252745628
2/8/16 18:36,-1.450349569,2.504388094,9.324530602
2/8/16 18:36,-1.443171144,2.49481678,9.374779701
2/8/16 18:36,-1.455135226,2.468495607,9.441779137
2/8/16 18:36,-1.455135226,2.408675194,9.48484993
2/8/16 18:36,-1.493420482,2.353640079,9.542277336
2/8/16 18:36,-1.493420482,2.3201406,9.580562592
2/8/16 18:36,-1.498206019,2.260320187,9.645467758
2/8/16 18:36,-1.510170221,2.18105793,9.724431038
2/8/16 18:36,-1.493420482,2.087737799,9.82732296
2/8/16 18:36,-1.500598907,2.015953064,9.923035622
2/8/16 18:36,-1.524527073,1.89391911,10.03789139
2/8/16 18:36,-1.534098387,1.805384636,10.13121128
2/8/16 18:36,-1.479063511,1.731207132,10.25832939
2/8/16 18:36,-1.471885085,1.642373681,10.34447098
2/8/16 18:36,-1.404886007,1.616052628,10.43061256
2/8/16 18:36,-1.380957723,1.561017632,10.50000477
2/8/16 18:36,-1.330708504,1.520339727,10.55025387
2/8/16 18:36,-1.254138112,1.520339727,10.57657528
2/8/16 18:36,-1.220638633,1.505982757,10.58853912
2/8/16 18:36,-1.136889815,1.505982757,10.62921715
2/8/16 18:36,-1.069890857,1.5011971,10.61964607
2/8/16 18:36,-1.01724875,1.498804331,10.61246777
2/8/16 18:36,-0.957129061,1.491625786,10.60050297
2/8/16 18:36,-0.899701297,1.482054472,10.60528946
2/8/16 18:36,-0.875773072,1.470090389,10.59332466
2/8/16 18:36,-0.86380899,1.434198022,10.58853912
2/8/16 18:36,-0.887737215,1.38873446,10.56939697
2/8/16 18:36,-0.89491564,1.369591832,10.54546833
2/8/16 18:36,-0.928415179,1.343270779,10.51196861
2/8/16 18:36,-0.945164919,1.307378531,10.49043369
2/8/16 18:36,-0.985842943,1.278664589,10.44975567
2/8/16 18:36,-1.029212832,1.247557878,10.4282198
2/8/16 18:36,-1.069890857,1.252343535,10.40668488
2/8/16 18:36,-1.09621191,1.226022482,10.3971138
2/8/16 18:36,-1.084247708,1.218844056,10.34207821
2/8/16 18:36,-1.115354419,1.216451168,10.34207821
2/8/16 18:36,-1.093819022,1.223629713,10.3277216
2/8/16 18:36,-1.089033365,1.233201027,10.29422188
2/8/16 18:36,-1.11296165,1.223629713,10.26550865
2/8/16 18:36,-1.077069283,1.242772222,10.27268696
2/8/16 18:36,-1.074676514,1.202094316,10.23679447
2/8/16 18:36,-1.069890857,1.19730866,10.23679447
2/8/16 18:36,-1.055533886,1.163809061,10.23200893
2/8/16 18:36,-1.050748229,1.166201949,10.20329475
2/8/16 18:36,-1.053141117,1.139880896,10.16979504
2/8/16 18:36,-1.029212832,1.113260746,10.14556789
2/8/16 18:36,-1.033998489,1.072582722,10.12403297
2/8/16 18:36,-1.036391258,1.07497561,10.09771156
2/8/16 18:36,-1.057926655,1.034297585,10.07139015
2/8/16 18:36,-1.043569803,1.012762189,10.04506969
2/8/16 18:36,-1.079462171,0.969691396,10.01635551
2/8/16 18:36,-1.086640596,0.960120082,10.01396275
2/8/16 18:36,-1.091426253,0.940977514,10.01635551
2/8/16 18:36,-1.105783105,0.919442117,10.02831936
2/8/16 18:36,-1.050748229,0.895513892,10.04506969
2/8/16 18:36,-1.022034407,0.881156921,10.09053326
2/8/16 18:36,-0.952343404,0.845264614,10.11685371
2/8/16 18:36,-0.906879783,0.814157903,10.15543842
2/8/16 18:36,-0.84705919,0.799800992,10.18893814
2/8/16 18:36,-0.784845829,0.768694282,10.20090199
2/8/16 18:36,-0.744167864,0.756730139,10.26311588
2/8/16 18:36,-0.698704183,0.708873689,10.29182911
2/8/16 18:36,-0.672383189,0.69212395,10.3277216
2/8/16 18:36,-0.636490822,0.670588553,10.34447098
2/8/16 18:36,-0.5910272,0.672981381,10.33011436
2/8/16 18:36,-0.579063058,0.651445985,10.35882854
2/8/16 18:36,-0.567098975,0.603589535,10.385149
2/8/16 18:36,-0.54317075,0.596411049,10.43300629
2/8/16 18:36,-0.55992049,0.577268481,10.49282646
2/8/16 18:36,-0.576670229,0.565005243,10.52393341
2/8/16 18:36,-0.5910272,0.524327278,10.60050297
2/8/16 18:36,-0.588634372,0.524327278,10.65314579
2/8/16 18:36,-0.5910272,0.486042112,10.69621658
2/8/16 18:36,-0.540777922,0.469292343,10.71565819
2/8/16 18:36,-0.502492726,0.486042112,10.74915791
2/8/16 18:36,-0.459421933,0.495613396,10.79462147
2/8/16 18:36,-0.442672193,0.514755964,10.86401272
2/8/16 18:36,-0.380159706,0.526720107,10.92861938
2/8/16 18:36,-0.363409936,0.529112935,11.00758266
2/8/16 18:36,-0.372981221,0.519541621,11.10090256
2/8/16 18:36,-0.396909446,0.514755964,11.16072273
2/8/16 18:36,-0.401695103,0.490827739,11.23729324
2/8/16 18:36,-0.44745782,0.481256455,11.2950201
2/8/16 18:36,-0.466600418,0.438185632,11.36201954
2/8/16 18:36,-0.490528643,0.407078952,11.4074831
2/8/16 18:36,-0.502492726,0.368793786,11.43380356
2/8/16 18:36,-0.504885554,0.33050862,11.45294666
2/8/16 18:36,-0.480957359,0.308973223,11.46491051
2/8/16 18:36,-0.46420759,0.306580395,11.46251774
2/8/16 18:36,-0.442672193,0.325722992,11.45294666
2/8/16 18:36,-0.423230499,0.33050862,11.42901802
2/8/16 18:36,-0.425623328,0.349651218,11.36680508
2/8/16 18:36,-0.423230499,0.380757898,11.32612705
2/8/16 18:36,-0.408873558,0.404686123,11.27348518
2/8/16 18:36,-0.411266387,0.433400005,11.24447155
2/8/16 18:36,-0.435194612,0.438185632,11.20140076
2/8/16 18:36,-0.459421933,0.442971289,11.14875889
2/8/16 18:36,-0.507278383,0.478863627,11.11047363
2/8/16 18:36,-0.533599436,0.490827739,11.08654594
2/8/16 18:36,-0.574277461,0.483649284,11.02672482
2/8/16 18:36,-0.612562597,0.498006225,10.97647572
2/8/16 18:36,-0.660419047,0.50518471,10.93579769
2/8/16 18:36,-0.720239639,0.495613396,10.92622662
2/8/16 18:36,-0.772881687,0.486042112,10.86401272
2/8/16 18:36,-0.808774054,0.514755964,10.83769226
2/8/16 18:36,-0.851844847,0.557826757,10.80419254
2/8/16 18:36,-0.880558729,0.555433929,10.80419254
2/8/16 18:36,-0.873380244,0.572482824,10.84487057
2/8/16 18:36,-0.861416161,0.594018221,10.83769226
2/8/16 18:36,-0.868594647,0.632303357,10.84726334
2/8/16 18:36,-0.86380899,0.625124931,10.84726334
2/8/16 18:36,-0.84705919,0.653838813,10.85444164
2/8/16 18:36,-0.866201818,0.644267499,10.86640549
2/8/16 18:36,-0.873380244,0.651445985,10.87837029
2/8/16 18:36,-0.827916622,0.672981381,10.87119102
2/8/16 18:36,-0.803988397,0.682552636,10.87597752
2/8/16 18:36,-0.710668325,0.696909607,10.8927269
2/8/16 18:36,-0.672383189,0.749551714,10.90229797
2/8/16 18:36,-0.614955425,0.78783685,10.90469074
2/8/16 18:36,-0.509671211,0.838086128,10.91186905
2/8/16 18:36,-0.46420759,0.888335407,10.94058323
2/8/16 18:36,-0.382552534,0.909870803,10.9621191
2/8/16 18:36,-0.329910427,0.952941597,10.99801064
2/8/16 18:36,-0.289232433,0.996012449,11.05304623
2/8/16 18:36,-0.274875492,1.005583763,11.10090256
2/8/16 18:36,-0.246161625,1.039083242,11.16550827
2/8/16 18:36,-0.22941187,1.051047325,11.22054386
2/8/16 18:36,-0.22941187,1.079761267,11.26600742
2/8/16 18:36,-0.224626228,1.096511006,11.29023457
2/8/16 18:36,-0.234197512,1.094118118,11.30698395
2/8/16 18:36,-0.260518551,1.127617717,11.30937672
2/8/16 18:36,-0.289232433,1.166201949,11.28305626
2/8/16 18:36,-0.308375031,1.223629713,11.28305626
2/8/16 18:36,-0.329910427,1.27627182,11.24925709
2/8/16 18:36,-0.35862428,1.345663667,11.25404263
2/8/16 18:36,-0.363409936,1.422233939,11.23011494
2/8/16 18:36,-0.401695103,1.491625786,11.20379353
2/8/16 18:36,-0.445065022,1.59691,11.1631155
2/8/16 18:36,-0.483350188,1.656730533,11.12722397
2/8/16 18:36,-0.586241543,1.70249331,11.0626173
2/8/16 18:36,-0.662811875,1.747956991,11.01715374
2/8/16 18:36,-0.744167864,1.81495595,10.90708351
2/8/16 18:36,-0.844666421,1.867598057,10.82333469
2/8/16 18:36,-0.909272611,1.944168448,10.73240757
2/8/16 18:36,-0.988235772,2.008774519,10.63160992
2/8/16 18:36,-1.026820064,2.078166485,10.53111172
2/8/16 18:36,-1.100997567,2.164308071,10.4282198
2/8/16 18:36,-1.163210869,2.209771633,10.3277216
2/8/16 18:36,-1.201496124,2.240878344,10.21286583
2/8/16 18:36,-1.246959686,2.317747831,10.14317513
2/8/16 18:36,-1.256531,2.394318104,10.02353382
2/8/16 18:36,-1.301994562,2.454138756,9.896714211
2/8/16 18:36,-1.30438745,2.513959408,9.793823242
2/8/16 18:36,-1.323530078,2.55942297,9.681360245
2/8/16 18:36,-1.359422326,2.612065077,9.587740898
2/8/16 18:36,-1.330708504,2.688635349,9.453742981
2/8/16 18:36,-1.328315616,2.73649168,9.360423088
2/8/16 18:36,-1.328315616,2.839682341,9.238389015
2/8/16 18:36,-1.297209024,2.906681299,9.12114048
2/8/16 18:36,-1.266102314,2.990430117,9.001200676
2/8/16 18:36,-1.211067319,3.052643538,8.876773834
2/8/16 18:36,-1.196710467,3.136392355,8.80738163
2/8/16 18:36,-1.14406836,3.215355396,8.709276199
2/8/16 18:36,-1.105783105,3.277568817,8.649456024
2/8/16 18:36,-1.041176915,3.35413909,8.572885513
2/8/16 18:36,-0.995414197,3.433401346,8.508278847
2/8/16 18:36,-0.914058268,3.536292791,8.491529465
2/8/16 18:36,-0.837487936,3.596113443,8.431409836
2/8/16 18:36,-0.736989379,3.715754509,8.402695656
2/8/16 18:36,-0.662811875,3.854538202,8.350053787
2/8/16 18:36,-0.528813779,3.976871252,8.335697174
2/8/16 18:36,-0.44745782,4.082155228,8.283054352
2/8/16 18:36,-0.344267368,4.189832687,8.251948357
2/8/16 18:36,-0.258125752,4.278367043,8.225626945
2/8/16 18:36,-0.195912361,4.323830605,8.220841408
2/8/16 18:36,-0.12173485,4.417150497,8.163414001
2/8/16 18:36,-0.069092751,4.467400074,8.144270897
2/8/16 18:36,-0.026021946,4.505984306,8.101200104
2/8/16 18:36,-0.016450657,4.537090778,8.031807899
2/8/16 18:36,-0.023629123,4.592125893,7.974380493
2/8/16 18:36,0.012263216,4.635196686,7.919345856
2/8/16 18:36,0.002691926,4.67587471,7.902296543
2/8/16 18:36,0.000299103,4.759623528,7.878368378
2/8/16 18:36,0.005084748,4.788337231,7.849654675
2/8/16 18:36,-0.004486543,4.85294342,7.82333374
2/8/16 18:36,-0.045164529,4.898406982,7.801798344
2/8/16 18:36,-0.114556387,4.915156841,7.737192154
2/8/16 18:36,-0.18155542,4.96779871,7.701299667
2/8/16 18:36,-0.284446806,4.977370262,7.646264553
2/8/16 18:36,-0.500099957,4.943870544,7.646264553
2/8/16 18:36,-0.581455886,4.972584724,7.55294466
2/8/16 18:36,-0.576670229,5.044369221,7.483552933
2/8/16 18:36,-0.550349236,5.078167915,7.399804115
2/8/16 18:36,-0.526421011,5.123631477,7.330112934
2/8/16 18:36,-0.545563579,5.159523964,7.299006462
2/8/16 18:36,-0.60777694,5.207380295,7.272685528
2/8/16 18:36,-0.650847733,5.283950806,7.260721207
2/8/16 18:36,-0.722632468,5.350949764,7.232007504
2/8/16 18:36,-0.768096089,5.396413326,7.227221489
2/8/16 18:36,-0.794417143,5.434698582,7.181757927
2/8/16 18:36,-0.803988397,5.465805054,7.181757927
2/8/16 18:36,-0.789631486,5.508875847,7.169794083
2/8/16 18:36,-0.789631486,5.530411243,7.136294365
2/8/16 18:36,-0.787238658,5.539982796,7.131508827
2/8/16 18:36,-0.763310432,5.55194664,7.105187893
2/8/16 18:36,-0.756131947,5.575874805,7.098009109
2/8/16 18:36,-0.744167864,5.595017433,7.105187893
2/8/16 18:36,-0.739382207,5.626423359,7.083652496
2/8/16 18:36,-0.70348984,5.655137062,7.031010151
2/8/16 18:36,-0.6867401,5.698207855,7.004689217
2/8/16 18:36,-0.667597532,5.722136021,6.973582268
2/8/16 18:36,-0.588634372,5.789135456,6.925725937
2/8/16 18:36,-0.55992049,5.825027466,6.841977119
2/8/16 18:36,-0.516849697,5.889633656,6.762714863
2/8/16 18:37,-0.476171702,5.927918911,6.717251301
2/8/16 18:37,-0.445065022,5.94466877,6.628716946
2/8/16 18:37,-0.375374049,5.970989704,6.544968128
2/8/16 18:37,-0.368195593,6.004489422,6.473183632
2/8/16 18:37,-0.32512477,6.021239281,6.396613121
2/8/16 18:37,-0.308375031,6.00927496,6.322435856
2/8/16 18:37,-0.255732924,6.014060497,6.281757832
2/8/16 18:37,-0.236590341,6.045167446,6.221638203
2/8/16 18:37,-0.22941187,6.037988663,6.190531254
2/8/16 18:37,-0.236590341,6.054738522,6.142674923
2/8/16 18:37,-0.234197512,6.064310074,6.121139526
2/8/16 18:37,-0.238983154,6.073881149,6.097211361
2/8/16 18:37,-0.258125752,6.104988098,6.073283195
2/8/16 18:37,-0.296410918,6.126523495,6.078068733
2/8/16 18:37,-0.34187454,6.145665646,6.080461502
2/8/16 18:37,-0.35862428,6.155237198,6.075675964
2/8/16 18:37,-0.406480759,6.171987057,6.046961784
2/8/16 18:37,-0.452243477,6.174379826,6.044569016
2/8/16 18:37,-0.440279365,6.210571289,6.046961784
2/8/16 18:37,-0.413659215,6.229713917,6.056533337
2/8/16 18:37,-0.387338162,6.246463299,6.046961784
2/8/16 18:37,-0.38973099,6.25842762,6.058926105
2/8/16 18:37,-0.387338162,6.291927338,6.027819157
2/8/16 18:37,-0.38973099,6.313462734,6.032605171
2/8/16 18:37,-0.356231481,6.346961975,6.03499794
2/8/16 18:37,-0.363409936,6.387639999,6.018248081
2/8/16 18:37,-0.396909446,6.433103561,6.025426388
2/8/16 18:37,-0.408873558,6.452246189,5.989534378
2/8/16 18:37,-0.432801783,6.480959892,5.979962826
2/8/16 18:37,-0.459421933,6.502495766,5.948856354
2/8/16 18:37,-0.480957359,6.490531445,5.917749405
2/8/16 18:37,-0.504885554,6.50010252,5.898606777
2/8/16 18:37,-0.547956407,6.524031162,5.853143215
2/8/16 18:37,-0.581455886,6.504888535,5.800501347
2/8/16 18:37,-0.610169768,6.507281303,5.738287926
2/8/16 18:37,-0.634097993,6.509674072,5.680860043
2/8/16 18:37,-0.662811875,6.521637917,5.632704735
2/8/16 18:37,-0.720239639,6.524031162,5.635097504
2/8/16 18:37,-0.746560693,6.516852379,5.632704735
2/8/16 18:37,-0.811166883,6.550352097,5.613562107
2/8/16 18:37,-0.832702279,6.555137634,5.594419479
2/8/16 18:37,-0.868594647,6.557530403,5.594419479
2/8/16 18:37,-0.880558729,6.569494724,5.618347645
2/8/16 18:37,-0.892522872,6.602993965,5.64227581
2/8/16 18:37,-0.890130043,6.629314899,5.668895721
2/8/16 18:37,-0.902094126,6.638886452,5.680860043
2/8/16 18:37,-0.904486954,6.689135551,5.702395439
2/8/16 18:37,-0.837487936,6.701099873,5.731109142
2/8/16 18:37,-0.746560693,6.717849731,5.704788208
2/8/16 18:37,-0.693918586,6.74925518,5.721538067
2/8/16 18:37,-0.634097993,6.761219501,5.738287926
2/8/16 18:37,-0.605384111,6.787540436,5.709573746
2/8/16 18:37,-0.588634372,6.736992359,5.702395439
2/8/16 18:37,-0.54317075,6.710670948,5.707180977
2/8/16 18:37,-0.502492726,6.69152832,5.709573746
2/8/16 18:37,-0.449850649,6.641279221,5.719145298
2/8/16 18:37,-0.423230499,6.612565517,5.731109142
2/8/16 18:37,-0.401695103,6.583851337,5.788537025
2/8/16 18:37,-0.363409936,6.552744865,5.836393356
2/8/16 18:37,-0.339481711,6.538387775,5.867500305
2/8/16 18:37,-0.308375031,6.526423931,5.924928188
2/8/16 18:37,-0.270089865,6.504888535,6.032605171
2/8/16 18:37,-0.227019042,6.5288167,6.101996899
2/8/16 18:37,-0.217447758,6.50010252,6.168995857
2/8/16 18:37,-0.188733891,6.502495766,6.229115486
2/8/16 18:37,-0.169591308,6.497709751,6.296114445
2/8/16 18:37,-0.162412837,6.490531445,6.379863262
2/8/16 18:37,-0.164805666,6.46421051,6.415755749
2/8/16 18:37,-0.162412837,6.461817741,6.49232626
2/8/16 18:37,-0.155234367,6.466603279,6.535397053
2/8/16 18:37,-0.171984121,6.454638958,6.5760746
2/8/16 18:37,-0.191126704,6.416353703,6.588038921
2/8/16 18:37,-0.243768811,6.418746948,6.61914587
2/8/16 18:37,-0.270089865,6.392425537,6.65503788
2/8/16 18:37,-0.34187454,6.404389858,6.671787739
2/8/16 18:37,-0.428016156,6.390032768,6.695715904
2/8/16 18:37,-0.504885554,6.363711834,6.712465763
2/8/16 18:37,-0.581455886,6.351747513,6.765107632
2/8/16 18:37,-0.63888365,6.349354744,6.815656185
2/8/16 18:37,-0.674775958,6.332605362,6.832406044
2/8/16 18:37,-0.720239639,6.313462734,6.856334209
2/8/16 18:37,-0.722632468,6.320641041,6.90419054
2/8/16 18:37,-0.756131947,6.287141323,6.944868565
2/8/16 18:37,-0.760917604,6.260820389,6.930511475
2/8/16 18:37,-0.782453001,6.265605927,6.947261333
2/8/16 18:37,-0.815952539,6.256034851,6.971189499
2/8/16 18:37,-0.808774054,6.241677761,6.96879673
2/8/16 18:37,-0.818345368,6.232106686,6.985546589
2/8/16 18:37,-0.825523794,6.234499454,6.992724895
2/8/16 18:37,-0.851844847,6.227321148,7.026224613
2/8/16 18:37,-0.873380244,6.239284992,7.040581703
2/8/16 18:37,-0.866201818,6.248856544,7.04776001
2/8/16 18:37,-0.859023333,6.20817852,7.083652496
2/8/16 18:37,-0.878165901,6.234499454,7.098009109
2/8/16 18:37,-0.868594647,6.215356827,7.119544506
2/8/16 18:37,-0.84705919,6.222535133,7.112366199
2/8/16 18:37,-0.839880765,6.189035892,7.16022253
2/8/16 18:37,-0.830309451,6.215356827,7.169794083
2/8/16 18:37,-0.832702279,6.210571289,7.23918581
2/8/16 18:37,-0.837487936,6.19382143,7.277471066
2/8/16 18:37,-0.830309451,6.220142365,7.349554539
2/8/16 18:37,-0.839880765,6.217749596,7.387839794
2/8/16 18:37,-0.84705919,6.232106686,7.478767395
2/8/16 18:37,-0.832702279,6.234499454,7.550551891
2/8/16 18:37,-0.844666421,6.227321148,7.584051132
2/8/16 18:37,-0.823130965,6.236892223,7.660621643
2/8/16 18:37,-0.827916622,6.20817852,7.701299667
2/8/16 18:37,-0.79920274,6.220142365,7.737192154
2/8/16 18:37,-0.775274515,6.179165363,7.741977692
2/8/16 18:37,-0.741775036,6.179165363,7.789834023
2/8/16 18:37,-0.693918586,6.157629967,7.801798344
2/8/16 18:37,-0.658026218,6.13609457,7.840083599
2/8/16 18:37,-0.634097993,6.109773636,7.847261906
2/8/16 18:37,-0.598205686,6.102594852,7.864011765
2/8/16 18:37,-0.617348254,6.102594852,7.875975609
2/8/16 18:37,-0.574277461,6.059524059,7.780262947
2/8/16 18:37,-0.598205686,5.89441967,7.344470024
2/8/16 18:37,-0.602991283,5.860919952,7.34716177
2/8/16 18:37,-0.619741082,5.825027466,7.399804115
2/8/16 18:37,-0.5910272,5.81545639,7.481160164
2/8/16 18:37,-0.540777922,5.779563904,7.593622684
2/8/16 18:37,-0.507278383,5.791528225,7.674978733
2/8/16 18:37,-0.476171702,5.75324297,7.749155998
2/8/16 18:37,-0.502492726,5.789135456,7.842476368
2/8/16 18:37,-0.514456868,5.808278084,7.892725468
2/8/16 18:37,-0.571884632,5.808278084,7.88793993
2/8/16 18:37,-0.595812857,5.825027466,7.842476368
2/8/16 18:37,-0.636490822,5.827420235,7.787441254
2/8/16 18:37,-0.701097012,5.822634697,7.715656757
2/8/16 18:37,-0.758524776,5.791528225,7.672585964
2/8/16 18:37,-0.794417143,5.796313763,7.607979774
2/8/16 18:37,-0.839880765,5.777171135,7.579265594
2/8/16 18:37,-0.882951558,5.779563904,7.612765312
2/8/16 18:37,-0.916451097,5.755635738,7.670193195
2/8/16 18:37,-0.94277215,5.743671417,7.744370461
2/8/16 18:37,-1.002891779,5.758028507,7.787441254
2/8/16 18:37,-1.036391258,5.743671417,7.852047443
2/8/16 18:37,-1.098604679,5.75324297,7.890332699
2/8/16 18:37,-1.158425212,5.743671417,7.94566679
2/8/16 18:37,-1.187139153,5.719743252,7.986344814
2/8/16 18:37,-1.213460207,5.686244011,8.050951004
2/8/16 18:37,-1.220638633,5.679065228,8.084450722
2/8/16 18:37,-1.213460207,5.655137062,8.110771179
2/8/16 18:37,-1.199103236,5.635994434,8.177770615
2/8/16 18:37,-1.19192481,5.614160061,8.223234177
2/8/16 18:37,-1.167996526,5.578267574,8.232805252
2/8/16 18:37,-1.110568762,5.523232937,8.275876045
2/8/16 18:37,-1.069890857,5.51605463,8.304590225
2/8/16 18:37,-1.024427176,5.50169754,8.335697174
2/8/16 18:37,-0.978664458,5.484947681,8.359624863
2/8/16 18:37,-0.882951558,5.47298336,8.373981476
2/8/16 18:37,-0.842273593,5.465805054,8.402695656
2/8/16 18:37,-0.765703261,5.468197823,8.457730293
2/8/16 18:37,-0.710668325,5.458626747,8.438588142
2/8/16 18:37,-0.665204704,5.417948723,8.448159218
2/8/16 18:37,-0.636490822,5.422734261,8.469993591
2/8/16 18:37,-0.614955425,5.403591633,8.460124016
2/8/16 18:37,-0.583848715,5.384449005,8.452944756
2/8/16 18:37,-0.583848715,5.384449005,8.477172852
2/8/16 18:37,-0.555134833,5.379663467,8.477172852
2/8/16 18:37,-0.562313318,5.358128071,8.481958389
2/8/16 18:37,-0.555134833,5.353342533,8.498707771
2/8/16 18:37,-0.562313318,5.348556995,8.522636414
2/8/16 18:37,-0.54317075,5.307878971,8.498707771
2/8/16 18:37,-0.531206608,5.274379253,8.515457153
2/8/16 18:37,-0.552742004,5.248058319,8.536993027
2/8/16 18:37,-0.540777922,5.21695137,8.582456589
2/8/16 18:37,-0.516849697,5.178666592,8.599205971
2/8/16 18:37,-0.514456868,5.169095039,8.613563538
2/8/16 18:37,-0.528813779,5.123631477,8.625527382
2/8/16 18:37,-0.552742004,5.092525005,8.675776482
2/8/16 18:37,-0.550349236,5.058726311,8.699705124
2/8/16 18:37,-0.538385093,5.020441055,8.730812073
2/8/16 18:37,-0.593420029,4.986941338,8.749954224
2/8/16 18:37,-0.600598455,4.960620403,8.769096375
2/8/16 18:37,-0.612562597,4.927121162,8.802596092
2/8/16 18:37,-0.619741082,4.896014214,8.838488579
2/8/16 18:37,-0.602991283,4.86730051,8.860024452
2/8/16 18:37,-0.626919508,4.831408024,8.86480999
2/8/16 18:37,-0.598205686,4.783551693,8.907880783
2/8/16 18:37,-0.600598455,4.759623528,8.893523216
2/8/16 18:37,-0.576670229,4.742873669,8.905488014
2/8/16 18:37,-0.538385093,4.716552734,8.907880783
2/8/16 18:37,-0.516849697,4.687838554,8.912666321
2/8/16 18:37,-0.507278383,4.654339314,8.919844627
2/8/16 18:37,-0.485742986,4.654339314,8.919844627
2/8/16 18:37,-0.420837671,4.637589455,8.922237396
2/8/16 18:37,-0.365802765,4.623232365,8.91505909
2/8/16 18:37,-0.329910427,4.61126852,8.910273552
2/8/16 18:37,-0.289232433,4.618446827,8.903095245
2/8/16 18:37,-0.250947267,4.584947109,8.910273552
2/8/16 18:37,-0.2222334,4.565804482,8.888737679
2/8/16 18:37,-0.188733891,4.556233406,8.893523216
2/8/16 18:37,-0.155234367,4.522733688,8.891130447
2/8/16 18:37,-0.140877441,4.510769844,8.900702477
2/8/16 18:37,-0.100199446,4.491328239,8.895915985
2/8/16 18:37,-0.0738784,4.450650215,8.931808472
2/8/16 18:37,-0.037986059,4.441078663,8.900702477
2/8/16 18:37,-0.028414769,4.42672205,8.917451859
2/8/16 18:37,0.009870393,4.41236496,8.927022934
2/8/16 18:37,0.017048862,4.395615101,8.91505909
2/8/16 18:37,0.024227329,4.371686935,8.927022934
2/8/16 18:37,0.014656039,4.366901398,8.938986778
2/8/16 18:37,0.043369912,4.369294167,8.907880783
2/8/16 18:37,0.029012974,4.338187218,8.903095245
2/8/16 18:37,0.024227329,4.331008911,8.891130447
2/8/16 18:37,0.019441685,4.314259052,8.879166603
2/8/16 18:37,0.012263216,4.299902439,8.910273552
2/8/16 18:37,-0.00209372,4.287938118,8.91505909
2/8/16 18:37,-0.0212363,4.261617184,8.941379547
2/8/16 18:37,-0.030807592,4.256831646,8.929415703
2/8/16 18:37,-0.057128642,4.237689018,8.931808472
2/8/16 18:37,-0.100199446,4.237689018,8.960522652
2/8/16 18:37,-0.124127671,4.211368084,8.970093727
2/8/16 18:37,-0.171984121,4.211368084,8.979664803
2/8/16 18:37,-0.231804699,4.223331928,9.015557289
2/8/16 18:37,-0.317946315,4.230510235,9.037391663
2/8/16 18:37,-0.406480759,4.216153622,9.037391663
2/8/16 18:37,-0.457029134,4.199403763,9.063713074
2/8/16 18:37,-0.492921472,4.185046673,9.097212791
2/8/16 18:37,-0.540777922,4.161118507,9.111569405
2/8/16 18:37,-0.614955425,4.14197588,9.130712509
2/8/16 18:37,-0.658026218,4.137190342,9.125926018
2/8/16 18:37,-0.705882669,4.115654945,9.157032967
2/8/16 18:37,-0.713061154,4.108476639,9.180961609
2/8/16 18:37,-0.744167864,4.098905087,9.20010376
2/8/16 18:37,-0.775274515,4.098905087,9.176176071
2/8/16 18:37,-0.782453001,4.086941242,9.207282066
2/8/16 18:37,-0.796809912,4.084548473,9.235996246
2/8/16 18:37,-0.803988397,4.09172678,9.276674271
2/8/16 18:37,-0.768096089,4.096512318,9.259924889
2/8/16 18:37,-0.765703261,4.125226021,9.269495964
2/8/16 18:37,-0.734596551,4.122833252,9.274281502
2/8/16 18:37,-0.710668325,4.132404804,9.269495964
2/8/16 18:37,-0.70348984,4.163511276,9.262317657
2/8/16 18:37,-0.677168787,4.192225456,9.245567322
2/8/16 18:37,-0.646062136,4.225724697,9.245567322
2/8/16 18:37,-0.636490822,4.240081787,9.209674835
2/8/16 18:37,-0.602991283,4.256831646,9.176176071
2/8/16 18:37,-0.605384111,4.26879549,9.154640198
2/8/16 18:38,-0.600598455,4.304687977,9.157032967
2/8/16 18:38,-0.610169768,4.326223373,9.154640198
2/8/16 18:38,-0.610169768,4.326223373,9.125926018
2/8/16 18:38,-0.617348254,4.345366001,9.118747711
2/8/16 18:38,-0.617348254,4.340580463,9.118747711
2/8/16 18:38,-0.648454964,4.359723091,9.092427254
2/8/16 18:38,-0.658026218,4.354937077,9.090034485
2/8/16 18:38,-0.646062136,4.340580463,9.080462456
2/8/16 18:38,-0.660419047,4.354937077,9.07089138
2/8/16 18:38,-0.662811875,4.340580463,9.056534767
2/8/16 18:38,-0.698704183,4.338187218,8.994022369
2/8/16 18:38,-0.693918586,4.354937077,8.970093727
2/8/16 18:38,-0.705882669,4.338187218,8.950951576
2/8/16 18:38,-0.732203722,4.350151539,8.953344345
2/8/16 18:38,-0.744167864,4.386044025,8.934201241
2/8/16 18:38,-0.765703261,4.417150497,8.893523216
2/8/16 18:38,-0.775274515,4.421936035,8.881559372
2/8/16 18:38,-0.794417143,4.417150497,8.881559372
2/8/16 18:38,-0.792024314,4.429114819,8.893523216
2/8/16 18:38,-0.792024314,4.436293125,8.867202759
2/8/16 18:38,-0.792024314,4.445864677,8.848059654
2/8/16 18:38,-0.775274515,4.436293125,8.857631683
2/8/16 18:38,-0.758524776,4.42672205,8.83609581
2/8/16 18:38,-0.758524776,4.42672205,8.795417786
2/8/16 18:38,-0.768096089,4.393222332,8.70688343
2/8/16 18:38,-0.753739119,4.33340168,8.682954788
2/8/16 18:38,-0.705882669,4.287938118,8.726025581
2/8/16 18:38,-0.648454964,4.290330887,8.840881348
2/8/16 18:38,-0.567098975,4.307080746,8.934201241
2/8/16 18:38,-0.4953143,4.326223373,9.017950058
2/8/16 18:38,-0.351445824,4.307080746,9.005986214
2/8/16 18:38,-0.260518551,4.302295208,9.01316452
2/8/16 18:38,-0.140877441,4.326223373,8.998807907
2/8/16 18:38,-0.037986059,4.338187218,9.030213356
2/8/16 18:38,0.067298137,4.393222332,9.07089138
2/8/16 18:38,0.153738856,4.414757729,9.118747711
2/8/16 18:38,0.203988135,4.460221291,9.135498047
2/8/16 18:38,0.266201526,4.505984306,9.123533249
2/8/16 18:38,0.321236432,4.563411713,9.094820023
2/8/16 18:38,0.361914426,4.572983265,9.01316452
2/8/16 18:38,0.407378048,4.572983265,8.941379547
2/8/16 18:38,0.433699101,4.561018944,8.879166603
2/8/16 18:38,0.428913444,4.496113777,8.828917503
2/8/16 18:38,0.43609193,4.402793884,8.788239479
2/8/16 18:38,0.41934216,4.33340168,8.697312355
2/8/16 18:38,0.349950314,4.249652863,8.637491226
2/8/16 18:38,0.282951266,4.177868366,8.548956871
2/8/16 18:38,0.170488611,4.113262177,8.503493309
2/8/16 18:38,0.03379862,4.074976921,8.436195374
2/8/16 18:38,-0.104985096,4.074976921,8.412266731
2/8/16 18:38,-0.29401809,4.07736969,8.371588707
2/8/16 18:38,-0.483350188,4.098905087,8.330910683
2/8/16 18:38,-0.691525757,4.153940201,8.304590225
2/8/16 18:38,-0.873380244,4.225724697,8.309375763
2/8/16 18:38,-1.053141117,4.256831646,8.373981476
2/8/16 18:38,-1.213460207,4.331008911,8.424231529
2/8/16 18:38,-1.395314693,4.369294167,8.522636414
2/8/16 18:38,-1.558026671,4.467400074,8.592027664
2/8/16 18:38,-1.711466432,4.551447868,8.644669533
2/8/16 18:38,-1.881356835,4.623232365,8.73559761
2/8/16 18:38,-1.972284079,4.733302116,8.845666885
2/8/16 18:38,-2.056032896,4.807479858,8.927022934
2/8/16 18:38,-2.118246317,4.876871586,9.032606125
2/8/16 18:38,-2.12333107,4.9319067,9.113962173
2/8/16 18:38,-2.132902384,4.943870544,9.195318222
2/8/16 18:38,-2.101496458,4.970191956,9.238389015
2/8/16 18:38,-2.060818434,4.963013172,9.25753212
2/8/16 18:38,-2.010569334,4.951049328,9.295816422
2/8/16 18:38,-1.936391711,4.898406982,9.283852577
2/8/16 18:38,-1.878963947,4.860121727,9.274281502
2/8/16 18:38,-1.814357758,4.809872627,9.214461327
2/8/16 18:38,-1.773679733,4.783551693,9.173783302
2/8/16 18:38,-1.716252089,4.762016296,9.092427254
2/8/16 18:38,-1.687538147,4.742873669,9.061320305
2/8/16 18:38,-1.613360643,4.735694885,8.967700958
2/8/16 18:38,-1.577468276,4.692624092,8.912666321
2/8/16 18:38,-1.474277854,4.683053017,8.833703041
2/8/16 18:38,-1.412064433,4.671088696,8.764310837
2/8/16 18:38,-1.325922847,4.666303158,8.714061737
2/8/16 18:38,-1.237388372,4.649553299,8.656634331
2/8/16 18:38,-1.120140076,4.651946545,8.611170769
2/8/16 18:38,-1.014855862,4.632803917,8.58006382
2/8/16 18:38,-0.906879783,4.616054058,8.536993027
2/8/16 18:38,-0.823130965,4.654339314,8.534600258
2/8/16 18:38,-0.753739119,4.656732082,8.491529465
2/8/16 18:38,-0.720239639,4.67587471,8.460124016
2/8/16 18:38,-0.653240562,4.704588413,8.429017067
2/8/16 18:38,-0.629312336,4.704588413,8.4146595
2/8/16 18:38,-0.583848715,4.72612381,8.402695656
2/8/16 18:38,-0.533599436,4.735694885,8.409873962
2/8/16 18:38,-0.502492726,4.7404809,8.402695656
2/8/16 18:38,-0.490528643,4.730909348,8.390731812
2/8/16 18:38,-0.454636306,4.723731041,8.433802605
2/8/16 18:38,-0.449850649,4.728516579,8.450551987
2/8/16 18:38,-0.392123818,4.692624092,8.464909554
2/8/16 18:38,-0.351445824,4.67587471,8.47956562
2/8/16 18:38,-0.351445824,4.656732082,8.527421951
2/8/16 18:38,-0.329910427,4.620839596,8.536993027
2/8/16 18:38,-0.329910427,4.589733124,8.558527946
2/8/16 18:38,-0.339481711,4.568197727,8.577671051
2/8/16 18:38,-0.308375031,4.510769844,8.611170769
2/8/16 18:38,-0.315553486,4.488935471,8.592027664
2/8/16 18:38,-0.296410918,4.476971149,8.575278282
