,Acceleration x (m/s^2),Acceleration y (m/s^2),Acceleration z (m/s^2)
2016-02-08 18:28:25.656222,2.21724939,3.14357066,8.86720276
2016-02-08 18:28:25.906222,2.18614268,3.16032052,8.86241722
2016-02-08 18:28:26.156222,2.13589335,3.19142723,8.85045242
2016-02-08 18:28:26.406222,2.08085847,3.18903446,8.86002445
2016-02-08 18:28:26.656222,2.0330019,3.21056986,8.86959553
2016-02-08 18:28:26.906222,1.91814649,3.23449802,8.91505909
2016-02-08 18:28:27.156222,1.85593307,3.26081896,8.94855881
2016-02-08 18:28:27.406222,1.85593307,3.26081896,8.94855881
2016-02-08 18:28:27.656222,1.80807662,3.27039027,8.9916296
2016-02-08 18:28:27.906222,1.75034976,3.28474736,9.00120068
2016-02-08 18:28:28.156222,1.692922,3.29910421,9.03978443
2016-02-08 18:28:28.406222,1.6713866,3.31824684,9.07328415
2016-02-08 18:28:28.656222,1.65702963,3.32063961,9.07089138
2016-02-08 18:28:28.906222,1.66660094,3.33021092,9.07328415
2016-02-08 18:28:29.156222,1.67856503,3.33978224,9.09242725
2016-02-08 18:28:29.406222,1.69052923,3.33021092,9.09960556
2016-02-08 18:28:29.656222,1.72163594,3.31824684,9.1043911
2016-02-08 18:28:29.906222,1.72881436,3.27517605,9.1043911
2016-02-08 18:28:30.156222,1.78624213,3.25842619,9.1043911
2016-02-08 18:28:30.406222,1.82961202,3.24406934,9.13071251
2016-02-08 18:28:30.656222,1.88943255,3.23928356,9.1043911
2016-02-08 18:28:30.906222,1.91336083,3.21296263,9.10678387
2016-02-08 18:28:31.156222,1.97318137,3.17707038,9.13071251
2016-02-08 18:28:31.406222,2.01864505,3.16989183,9.12353325
2016-02-08 18:28:31.656222,2.08085847,3.16749907,9.14746189
2016-02-08 18:28:31.906222,2.13110757,3.15792775,9.13789082
2016-02-08 18:28:32.156222,2.17178559,3.14596367,9.14028359
2016-02-08 18:28:32.406222,2.21724939,3.13399935,9.14506912
2016-02-08 18:28:32.656222,2.26749849,3.12682104,9.1546402
2016-02-08 18:28:32.906222,2.31056929,3.12203527,9.16421127
2016-02-08 18:28:33.156222,2.341676,3.11246395,9.16660404
2016-02-08 18:28:33.406222,2.38504601,3.10049987,9.17139053
2016-02-08 18:28:33.656222,2.42572403,3.10767841,9.18335438
2016-02-08 18:28:33.906222,2.44486642,3.08135724,9.2120676
2016-02-08 18:28:34.156222,2.44008088,3.08853579,9.24078178
2016-02-08 18:28:34.406222,2.44725943,3.09332156,9.21446133
2016-02-08 18:28:34.656222,2.46640205,3.08375025,9.23360348
2016-02-08 18:28:34.906222,2.45683074,3.06939316,9.25035286
2016-02-08 18:28:35.156222,2.47836614,3.05742908,9.30778122
2016-02-08 18:28:35.406222,2.46640205,3.03110814,9.30299568
2016-02-08 18:28:35.656222,2.46400905,3.01675105,9.34367371
2016-02-08 18:28:35.906222,2.44486642,3.0023942,9.36520863
2016-02-08 18:28:36.156222,2.46161628,2.98325157,9.39631558
2016-02-08 18:28:36.406222,2.46161628,2.96650195,9.41785049
2016-02-08 18:28:36.656222,2.47836614,2.94257355,9.43938637
2016-02-08 18:28:36.906222,2.46161628,2.94496656,9.47288609
2016-02-08 18:28:37.156222,2.44725943,2.93300247,9.52552795
2016-02-08 18:28:37.406222,2.44486642,2.93778801,9.53509903
2016-02-08 18:28:37.656222,2.43529534,2.9066813,9.54227734
2016-02-08 18:28:37.906222,2.43290234,2.8851459,9.58534813
2016-02-08 18:28:38.156222,2.43768811,2.88275313,9.56142044
2016-02-08 18:28:38.406222,2.4496522,2.87796736,9.58295536
2016-02-08 18:28:38.656222,2.45204496,2.84446788,9.56142044
2016-02-08 18:28:38.906222,2.44725943,2.88036037,9.53270626
2016-02-08 18:28:39.156222,2.44008088,2.84446788,9.49681377
2016-02-08 18:28:39.406222,2.41615272,2.82532525,9.43460083
2016-02-08 18:28:39.656222,2.41375995,2.78674102,9.40110111
2016-02-08 18:28:39.906222,2.39701009,2.74606299,9.39631558
2016-02-08 18:28:40.156222,2.38026023,2.75324154,9.36042309
2016-02-08 18:28:40.406222,2.35842586,2.74606299,9.30299568
2016-02-08 18:28:40.656222,2.32492638,2.73409891,9.29103088
2016-02-08 18:28:40.906222,2.30339098,2.74606299,9.25035286
2016-02-08 18:28:41.156222,2.28903389,2.78674102,9.23838902
2016-02-08 18:28:41.406222,2.2986052,2.80349088,9.22881794
2016-02-08 18:28:41.656222,2.2986052,2.82771826,9.20728207
2016-02-08 18:28:41.906222,2.31296229,2.85164642,9.16660404
2016-02-08 18:28:42.156222,2.31056929,2.87796736,9.11635494
2016-02-08 18:28:42.406222,2.27946258,2.91385984,9.10199833
2016-02-08 18:28:42.656222,2.28903389,2.93778801,9.04696369
2016-02-08 18:28:42.906222,2.25792718,2.96650195,8.99880791
2016-02-08 18:28:43.156222,2.21964216,2.96889472,8.98684406
2016-02-08 18:28:43.406222,2.21724939,2.99282289,8.96530819
2016-02-08 18:28:43.656222,2.16460729,3.02871537,8.95812988
2016-02-08 18:28:43.906222,2.14546466,3.05742908,8.94137955
2016-02-08 18:28:44.156222,2.1071794,3.08853579,8.9222374
2016-02-08 18:28:44.406222,2.10000086,3.10767841,8.90788078
2016-02-08 18:28:44.656222,2.08085847,3.14596367,8.9294157
2016-02-08 18:28:44.906222,2.03060913,3.16749907,8.90788078
2016-02-08 18:28:45.156222,2.01385927,3.2153554,8.92702293
2016-02-08 18:28:45.406222,1.9588244,3.21296263,8.94616604
2016-02-08 18:28:45.656222,1.95643163,3.25603342,8.94616604
2016-02-08 18:28:45.906222,1.9157536,3.28474736,8.93659401
2016-02-08 18:28:46.156222,1.8750757,3.29431868,8.95812988
2016-02-08 18:28:46.406222,1.84875464,3.30628276,8.92702293
2016-02-08 18:28:46.656222,1.80299187,3.34217501,8.91745186
2016-02-08 18:28:46.906222,1.77667081,3.34456778,8.93898678
2016-02-08 18:28:47.156222,1.73599279,3.36849618,8.94616604
2016-02-08 18:28:47.406222,1.70249331,3.38315201,8.91984463
2016-02-08 18:28:47.656222,1.68574357,3.40468741,8.88155937
2016-02-08 18:28:47.906222,1.64267278,3.42383003,8.90788078
2016-02-08 18:28:48.156222,1.58045936,3.39511633,8.88395214
2016-02-08 18:28:48.406222,1.51824594,3.41665173,8.84327412
2016-02-08 18:28:48.656222,1.47517514,3.43340135,8.84566689
2016-02-08 18:28:48.906222,1.42971158,3.46690083,8.8217392
2016-02-08 18:28:49.156222,1.36989093,3.48125792,8.83609581
2016-02-08 18:28:49.406222,1.29810631,3.493222,8.84327412
2016-02-08 18:28:49.656222,1.22602248,3.50279331,8.85763168
2016-02-08 18:28:49.906222,1.14945221,3.51236463,8.84327412
2016-02-08 18:28:50.156222,1.1183455,3.51954293,8.90309525
2016-02-08 18:28:50.406222,1.03698957,3.54107833,8.91266632
2016-02-08 18:28:50.656222,0.9484551,3.5673995,8.91505909
2016-02-08 18:28:50.906222,0.9101699,3.60089898,8.91266632
2016-02-08 18:28:51.156222,0.87906319,3.59611344,8.91266632
2016-02-08 18:28:51.406222,0.88384885,3.61764884,8.90788078
2016-02-08 18:28:51.656222,0.87427759,3.63439846,8.88873768
2016-02-08 18:28:51.906222,0.86231345,3.60807753,8.86720276
2016-02-08 18:28:52.156222,0.88145602,3.61525583,8.80738163
2016-02-08 18:28:52.406222,0.89581299,3.59132767,8.80738163
2016-02-08 18:28:52.656222,0.91495556,3.60329175,8.76191807
2016-02-08 18:28:52.906222,0.91974121,3.59132767,8.73081207
2016-02-08 18:28:53.156222,0.95802635,3.57936359,8.70209789
2016-02-08 18:28:53.406222,0.9843474,3.56979227,8.69252682
2016-02-08 18:28:53.656222,1.01066852,3.5889349,8.63509846
2016-02-08 18:28:53.906222,1.04656076,3.59611344,8.61356354
2016-02-08 18:28:54.156222,1.05852497,3.59611344,8.55852795
2016-02-08 18:28:54.406222,1.09202445,3.62004161,8.5465641
2016-02-08 18:28:54.656222,1.11595261,3.66071963,8.56331444
2016-02-08 18:28:54.906222,1.11355984,3.65114832,8.54895687
2016-02-08 18:28:55.156222,1.12073827,3.68225503,8.53699303
2016-02-08 18:28:55.406222,1.07766748,3.71096873,8.56809998
2016-02-08 18:28:55.656222,1.06809616,3.71575451,8.56092167
2016-02-08 18:28:55.906222,1.03459668,3.72532582,8.56092167
2016-02-08 18:28:56.156222,1.02023971,3.75164676,8.58724213
2016-02-08 18:28:56.406222,0.96281201,3.75164676,8.60399246
2016-02-08 18:28:56.656222,0.95084792,3.77557492,8.60399246
2016-02-08 18:28:56.906222,0.91495556,3.77318215,8.639884
2016-02-08 18:28:57.156222,0.88384885,3.7803607,8.65424156
2016-02-08 18:28:57.406222,0.89342016,3.77796793,8.68295479
2016-02-08 18:28:57.656222,0.83838522,3.77078939,8.73799038
2016-02-08 18:28:57.906222,0.82881397,3.76121807,8.79781056
2016-02-08 18:28:58.156222,0.81684983,3.76121807,8.84566689
2016-02-08 18:28:58.406222,0.79531443,3.77318215,8.92463017
2016-02-08 18:28:58.656222,0.79770726,3.75643253,8.99402237
2016-02-08 18:28:58.906222,0.80249292,3.74446845,9.07089138
2016-02-08 18:28:59.156222,0.77617186,3.73728991,9.12114048
2016-02-08 18:28:59.406222,0.78095752,3.68704057,9.17617607
2016-02-08 18:28:59.656222,0.76899338,3.66071963,9.25274563
2016-02-08 18:28:59.906222,0.75942206,3.63439846,9.28863812
2016-02-08 18:29:00.156222,0.74267232,3.5673995,9.3245306
2016-02-08 18:29:00.406222,0.75224364,3.52193594,9.39153004
2016-02-08 18:29:00.656222,0.74267232,3.48843622,9.42502976
2016-02-08 18:29:00.906222,0.7187441,3.44297266,9.49442101
2016-02-08 18:29:01.156222,0.72113693,3.40229464,9.52313519
2016-02-08 18:29:01.406222,0.71156561,3.3637104,9.57338429
2016-02-08 18:29:01.656222,0.69003022,3.35174632,9.6191473
2016-02-08 18:29:01.906222,0.65144599,3.34456778,9.6502533
2016-02-08 18:29:02.156222,0.67298138,3.34696078,9.67418194
2016-02-08 18:29:02.406222,0.69003022,3.32542539,9.68375301
2016-02-08 18:29:02.656222,0.71635127,3.34217501,9.69093132
2016-02-08 18:29:02.906222,0.71156561,3.34935355,9.73160934
2016-02-08 18:29:03.156222,0.73788667,3.35174632,9.75314522
2016-02-08 18:29:03.406222,0.75942206,3.34696078,9.76271629
2016-02-08 18:29:03.656222,0.76181489,3.35653186,9.80817986
2016-02-08 18:29:03.906222,0.72352976,3.33738947,9.85603619
2016-02-08 18:29:04.156222,0.73070824,3.33738947,9.90149975
2016-02-08 18:29:04.406222,0.70917279,3.33499646,9.93499947
2016-02-08 18:29:04.656222,0.70438719,3.33499646,9.96371365
2016-02-08 18:29:04.906222,0.71395844,3.33738947,10.0091772
2016-02-08 18:29:05.156222,0.71395844,3.33021092,10.0450697
2016-02-08 18:29:05.406222,0.68015981,3.30867553,10.0713902
2016-02-08 18:29:05.656222,0.69960153,3.32781816,10.1359968
2016-02-08 18:29:05.906222,0.67776704,3.31346107,10.1793671
2016-02-08 18:29:06.156222,0.68524456,3.29671145,10.2344017
2016-02-08 18:29:06.406222,0.6658029,3.26560473,10.2583294
2016-02-08 18:29:06.656222,0.65623158,3.23689079,10.2966147
2016-02-08 18:29:06.906222,0.63708901,3.20578408,10.3277216
2016-02-08 18:29:07.156222,0.65623158,3.18664146,10.3660069
2016-02-08 18:29:07.406222,0.64187467,3.14117789,10.354043
2016-02-08 18:29:07.656222,0.64187467,3.10289288,10.394721
2016-02-08 18:29:07.906222,0.64905316,3.06939316,10.3516502
2016-02-08 18:29:08.156222,0.63230336,3.04307222,10.3564358
2016-02-08 18:29:08.406222,0.63948184,3.02153683,10.3396854
2016-02-08 18:29:08.656222,0.62033927,2.9808588,10.3348999
2016-02-08 18:29:08.906222,0.61316079,3.00478697,10.2918291
2016-02-08 18:29:09.156222,0.6442675,3.01435828,10.2750797
2016-02-08 18:29:09.406222,0.66341007,3.0023942,10.2487583
2016-02-08 18:29:09.656222,0.68524456,2.99282289,10.2296162
2016-02-08 18:29:09.906222,0.68763739,3.0023942,10.1985092
2016-02-08 18:29:10.156222,0.68255264,3.0023942,10.1674023
2016-02-08 18:29:10.406222,0.69242305,2.98564434,10.1168537
2016-02-08 18:29:10.656222,0.69481587,3.0023942,10.0666046
2016-02-08 18:29:10.906222,0.71156561,3.00000143,10.0570335
2016-02-08 18:29:11.156222,0.7187441,2.98564434,9.99242783
2016-02-08 18:29:11.406222,0.72831541,2.98325157,9.97807026
2016-02-08 18:29:11.656222,0.75224364,2.99760866,9.94457054
2016-02-08 18:29:11.906222,0.80010009,3.0023942,9.90389252
2016-02-08 18:29:12.156222,0.80727851,2.98325157,9.8823576
2016-02-08 18:29:12.406222,0.81206417,2.98564434,9.87039375
2016-02-08 18:29:12.656222,0.82881397,2.98803735,9.84407234
2016-02-08 18:29:12.906222,0.85992062,2.9808588,9.84646511
2016-02-08 18:29:13.156222,0.86470628,3.00957274,9.82971573
2016-02-08 18:29:13.406222,0.89342016,2.98564434,9.7818594
2016-02-08 18:29:13.656222,0.92213404,3.03350091,9.75553799
2016-02-08 18:29:13.906222,0.97238332,3.01435828,9.67657471
2016-02-08 18:29:14.156222,1.01306129,3.03589368,9.62871838
2016-02-08 18:29:14.406222,1.06091774,3.04307222,9.58295536
2016-02-08 18:29:14.656222,1.1183455,3.04546499,9.51595688
2016-02-08 18:29:14.906222,1.15663064,3.05742908,9.47527885
2016-02-08 18:29:15.156222,1.19491577,3.02632237,9.39153004
2016-02-08 18:29:15.406222,1.29332066,3.04785776,9.3245306
2016-02-08 18:29:15.656222,1.31964171,3.03828645,9.26949596
2016-02-08 18:29:15.906222,1.35553408,3.05025077,9.18574715
2016-02-08 18:29:16.156222,1.41296172,3.05264354,9.13310528
2016-02-08 18:29:16.406222,1.47756803,3.07178617,9.08524895
2016-02-08 18:29:16.656222,1.53260291,3.0765717,9.01077175
2016-02-08 18:29:16.906222,1.57088804,3.06700039,8.96530819
2016-02-08 18:29:17.156222,1.64027989,3.07896447,8.88873768
2016-02-08 18:29:17.406222,1.68335068,3.10289288,8.85284519
2016-02-08 18:29:17.656222,1.72881436,3.12442827,8.81695366
2016-02-08 18:29:17.906222,1.75752819,3.11246395,8.77388287
2016-02-08 18:29:18.156222,1.78145647,3.12203527,8.75234699
2016-02-08 18:29:18.406222,1.80538464,3.11724973,8.74516869
2016-02-08 18:29:18.656222,1.80807662,3.10289288,8.72124004
2016-02-08 18:29:18.906222,1.81046939,3.1196425,8.72841835
2016-02-08 18:29:19.156222,1.81525505,3.10289288,8.71166897
2016-02-08 18:29:19.406222,1.8415761,3.08375025,8.74277592
2016-02-08 18:29:19.656222,1.83918333,3.06460762,8.74277592
2016-02-08 18:29:19.906222,1.84636176,3.06221485,8.73320484
2016-02-08 18:29:20.156222,1.8415761,3.05503631,8.76431084
2016-02-08 18:29:20.406222,1.82243359,3.03589368,8.79781056
2016-02-08 18:29:20.656222,1.78145647,3.02153683,8.81934643
2016-02-08 18:29:20.906222,1.73838568,2.99760866,8.86002445
2016-02-08 18:29:21.156222,1.68813634,2.9808588,8.90070248
2016-02-08 18:29:21.406222,1.62592304,2.95693064,8.97727203
2016-02-08 18:29:21.656222,1.60438764,2.94257355,9.01555729
2016-02-08 18:29:21.906222,1.57328093,2.93300247,9.06371307
2016-02-08 18:29:22.156222,1.5541383,2.92582393,9.14267635
2016-02-08 18:29:22.406222,1.54935265,2.9282167,9.18335438
2016-02-08 18:29:22.656222,1.51585317,2.88753867,9.23121071
2016-02-08 18:29:22.906222,1.51824594,2.87796736,9.25274563
2016-02-08 18:29:23.156222,1.51106751,2.84925365,9.28624535
2016-02-08 18:29:23.406222,1.51106751,2.85882497,9.32213783
2016-02-08 18:29:23.656222,1.51346028,2.86600328,9.35085201
2016-02-08 18:29:23.906222,1.52542448,2.85643196,9.38913727
2016-02-08 18:29:24.156222,1.50628185,2.84925365,9.41306496
2016-02-08 18:29:24.406222,1.50628185,2.82293248,9.44656467
2016-02-08 18:29:24.656222,1.47278237,2.82293248,9.4369936
2016-02-08 18:29:24.906222,1.48953211,2.80349088,9.45374298
2016-02-08 18:29:25.156222,1.49431777,2.78434825,9.44656467
2016-02-08 18:29:25.406222,1.52303159,2.76281285,9.47049332
2016-02-08 18:29:25.656222,1.50628185,2.74606299,9.46092129
2016-02-08 18:29:25.906222,1.53499568,2.72692061,9.45374298
2016-02-08 18:29:26.156222,1.56610239,2.67188549,9.43460083
2016-02-08 18:29:26.406222,1.58285213,2.65035009,9.44177914
2016-02-08 18:29:26.656222,1.62113738,2.64077878,9.40827942
2016-02-08 18:29:26.906222,1.62592304,2.62642193,9.40588665
2016-02-08 18:29:27.156222,1.66181529,2.62402916,9.38195801
2016-02-08 18:29:27.406222,1.67856503,2.6072793,9.36999416
2016-02-08 18:29:27.656222,1.70488608,2.61924338,9.35563755
2016-02-08 18:29:27.906222,1.73360002,2.59052968,9.35324478
2016-02-08 18:29:28.156222,1.73360002,2.60249376,9.3676014
2016-02-08 18:29:28.406222,1.76470673,2.60249376,9.3747797
2016-02-08 18:29:28.656222,1.77667081,2.60249376,9.33410168
2016-02-08 18:29:28.906222,1.81525505,2.58813667,9.34128094
2016-02-08 18:29:29.156222,1.86789715,2.57377982,9.3245306
2016-02-08 18:29:29.406222,1.90618229,2.60249376,9.33649445
2016-02-08 18:29:29.656222,1.92771769,2.60249376,9.32931614
2016-02-08 18:29:29.906222,1.94686031,2.60249376,9.32931614
2016-02-08 18:29:30.156222,1.95164597,2.61685062,9.35085201
2016-02-08 18:29:30.406222,1.98275268,2.60967231,9.37717247
2016-02-08 18:29:30.656222,1.98753834,2.59052968,9.39153004
2016-02-08 18:29:30.906222,1.96839571,2.5785656,9.40588665
2016-02-08 18:29:31.156222,1.95643163,2.53788757,9.42981529
2016-02-08 18:29:31.406222,1.94207466,2.5115664,9.44895744
2016-02-08 18:29:31.656222,1.88464689,2.49242377,9.45374298
2016-02-08 18:29:31.906222,1.86789715,2.47806692,9.43460083
2016-02-08 18:29:32.156222,1.81046939,2.46610284,9.42263603
2016-02-08 18:29:32.406222,1.76470673,2.45174599,9.47049332
2016-02-08 18:29:32.656222,1.692922,2.44456744,9.50159931
2016-02-08 18:29:32.906222,1.64027989,2.44217467,9.5566349
2016-02-08 18:29:33.156222,1.58524501,2.43499613,9.57816982
2016-02-08 18:29:33.406222,1.50867462,2.44696021,9.62393284
2016-02-08 18:29:33.656222,1.42731869,2.47088838,9.66461086
2016-02-08 18:29:33.906222,1.34835553,2.46371007,9.71246719
2016-02-08 18:29:34.156222,1.29571343,2.49481678,9.74596691
2016-02-08 18:29:34.406222,1.2355938,2.51395941,9.76750183
2016-02-08 18:29:34.656222,1.19491577,2.51635218,9.76271629
2016-02-08 18:29:34.906222,1.14227366,2.52353048,9.75793076
2016-02-08 18:29:35.156222,1.15184498,2.5354948,9.77707291
2016-02-08 18:29:35.406222,1.16141629,2.52831626,9.77946568
2016-02-08 18:29:35.656222,1.13030958,2.55463719,9.80100155
2016-02-08 18:29:35.906222,1.12313116,2.51635218,9.7890377
2016-02-08 18:29:36.156222,1.12552393,2.53788757,9.77468014
2016-02-08 18:29:36.406222,1.11355984,2.54028034,9.76271629
2016-02-08 18:29:36.656222,1.12313116,2.51874495,9.77228737
2016-02-08 18:29:36.906222,1.13509524,2.51874495,9.77707291
2016-02-08 18:29:37.156222,1.15902352,2.5331018,9.73400211
2016-02-08 18:29:37.406222,1.192523,2.54506588,9.74835968
2016-02-08 18:29:37.656222,1.21166551,2.58095837,9.7196455
2016-02-08 18:29:37.906222,1.22123683,2.59052968,9.68375301
2016-02-08 18:29:38.156222,1.24546421,2.62163639,9.68375301
2016-02-08 18:29:38.406222,1.27178526,2.6288147,9.65503979
2016-02-08 18:29:38.656222,1.29571343,2.61206508,9.62154007
2016-02-08 18:29:38.906222,1.32442737,2.63599324,9.6071825
2016-02-08 18:29:39.156222,1.31485605,2.63120771,9.59043312
2016-02-08 18:29:39.406222,1.3627125,2.65035009,9.55902767
2016-02-08 18:29:39.656222,1.36510527,2.65752864,9.54706287
2016-02-08 18:29:39.906222,1.36749816,2.68624258,9.53270626
2016-02-08 18:29:40.156222,1.39142633,2.70777798,9.50638485
2016-02-08 18:29:40.406222,1.40099764,2.71734929,9.49202824
2016-02-08 18:29:40.656222,1.42253304,2.71495628,9.47288609
2016-02-08 18:29:40.906222,1.41774738,2.74606299,9.44895744
2016-02-08 18:29:41.156222,1.42731869,2.75563431,9.43220806
2016-02-08 18:29:41.406222,1.40817618,2.75802732,9.36999416
2016-02-08 18:29:41.656222,1.39860487,2.75084877,9.35803032
2016-02-08 18:29:41.906222,1.37706947,2.748456,9.33649445
2016-02-08 18:29:42.156222,1.38185513,2.72692061,9.29821014
2016-02-08 18:29:42.406222,1.39621198,2.72931337,9.24556732
2016-02-08 18:29:42.656222,1.3627125,2.71017075,9.21924686
2016-02-08 18:29:42.906222,1.33878422,2.69581389,9.18813992
2016-02-08 18:29:43.156222,1.36031961,2.71974206,9.17139053
2016-02-08 18:29:43.406222,1.35792685,2.72213483,9.13071251
2016-02-08 18:29:43.656222,1.38903356,2.73409891,9.11156941
2016-02-08 18:29:43.906222,1.37706947,2.76042008,9.08764172
2016-02-08 18:29:44.156222,1.37228382,2.78434825,9.07567692
2016-02-08 18:29:44.406222,1.37228382,2.78434825,9.08285523
2016-02-08 18:29:44.656222,1.36989093,2.80109811,9.054142
2016-02-08 18:29:44.906222,1.36031961,2.83011103,9.04696369
2016-02-08 18:29:45.156222,1.34117711,2.85164642,9.05174923
2016-02-08 18:29:45.406222,1.30289197,2.87796736,9.04696369
2016-02-08 18:29:45.656222,1.2669996,2.88753867,9.02752209
2016-02-08 18:29:45.906222,1.24277222,2.89950275,9.03499889
2016-02-08 18:29:46.156222,1.19730866,2.8851459,9.03499889
2016-02-08 18:29:46.406222,1.17338038,2.88753867,9.04457092
2016-02-08 18:29:46.656222,1.15184498,2.88753867,9.04935646
2016-02-08 18:29:46.906222,1.09202445,2.88993144,9.06610584
2016-02-08 18:29:47.156222,1.06570339,2.91625261,9.07328415
2016-02-08 18:29:47.406222,1.01066852,2.9066813,9.07567692
2016-02-08 18:29:47.656222,0.98195458,2.94496656,9.05892754
2016-02-08 18:29:47.906222,0.96999049,2.93300247,9.06849861
2016-02-08 18:29:48.156222,0.9317053,2.93060947,9.05653477
2016-02-08 18:29:48.406222,0.91256273,2.93300247,9.054142
2016-02-08 18:29:48.656222,0.90059865,2.93539524,9.06849861
2016-02-08 18:29:48.906222,0.89342016,2.94496656,9.054142
2016-02-08 18:29:49.156222,0.9101699,2.94735932,9.06849861
2016-02-08 18:29:49.406222,0.92213404,2.94975209,9.05653477
2016-02-08 18:29:49.656222,0.91734839,2.96889472,9.06610584
2016-02-08 18:29:49.906222,0.96281201,2.99282289,9.07089138
2016-02-08 18:29:50.156222,0.97716892,2.98803735,9.06132031
2016-02-08 18:29:50.406222,0.98195458,3.01914406,9.07328415
2016-02-08 18:29:50.656222,0.99391872,3.01675105,9.06371307
2016-02-08 18:29:50.906222,1.00588286,3.06221485,9.05892754
2016-02-08 18:29:51.156222,1.04895365,3.05503631,9.07567692
2016-02-08 18:29:51.406222,1.11116707,3.06700039,9.06610584
2016-02-08 18:29:51.656222,1.14705932,3.05742908,9.03978443
2016-02-08 18:29:51.906222,1.19491577,3.07178617,9.04696369
2016-02-08 18:29:52.156222,1.23798657,3.06221485,9.03499889
2016-02-08 18:29:52.406222,1.29810631,3.0765717,8.99641514
2016-02-08 18:29:52.656222,1.32682014,3.06939316,8.98923683
2016-02-08 18:29:52.906222,1.36989093,3.08614302,8.9724865
2016-02-08 18:29:53.156222,1.42253304,3.06939316,8.94377327
2016-02-08 18:29:53.406222,1.49192488,3.07178617,8.95573711
2016-02-08 18:29:53.656222,1.50628185,3.07417893,8.94137955
2016-02-08 18:29:53.906222,1.5541383,3.08375025,8.94616604
2016-02-08 18:29:54.156222,1.60678041,3.08853579,8.94855881
2016-02-08 18:29:54.406222,1.62113738,3.08135724,8.93898678
2016-02-08 18:29:54.656222,1.65224409,3.10289288,8.94855881
2016-02-08 18:29:54.906222,1.68574357,3.08853579,8.95095158
2016-02-08 18:29:55.156222,1.70249331,3.10767841,8.93659401
2016-02-08 18:29:55.406222,1.74077845,3.11007118,8.93659401
2016-02-08 18:29:55.656222,1.7264216,3.11485696,8.94855881
2016-02-08 18:29:55.906222,1.76949239,3.10289288,8.93898678
2016-02-08 18:29:56.156222,1.78624213,3.09571433,8.96291542
2016-02-08 18:29:56.406222,1.81046939,3.12203527,8.97487927
2016-02-08 18:29:56.656222,1.83439767,3.15074921,8.9916296
2016-02-08 18:29:56.906222,1.86550438,3.15553474,8.98205757
2016-02-08 18:29:57.156222,1.87986124,3.1722846,8.99402237
2016-02-08 18:29:57.406222,1.87986124,3.19621277,8.99641514
2016-02-08 18:29:57.656222,1.88464689,3.19621277,9.01077175
2016-02-08 18:29:57.906222,1.90139675,3.16989183,8.99641514
2016-02-08 18:29:58.156222,1.86071873,3.19382,8.98923683
2016-02-08 18:29:58.406222,1.84875464,3.18903446,8.99641514
2016-02-08 18:29:58.656222,1.82482636,3.18903446,8.98445129
2016-02-08 18:29:58.906222,1.77667081,3.18903446,8.97487927
2016-02-08 18:29:59.156222,1.75274253,3.22014117,8.94137955
2016-02-08 18:29:59.406222,1.73838568,3.21296263,8.92463017
2016-02-08 18:29:59.656222,1.71206462,3.23449802,8.89830875
2016-02-08 18:29:59.906222,1.67617226,3.27278328,8.8791666
2016-02-08 18:30:00.156222,1.64267278,3.27756882,8.89113045
2016-02-08 18:30:00.406222,1.61635172,3.32063961,8.88634491
2016-02-08 18:30:00.656222,1.59003067,3.33978224,8.89352322
2016-02-08 18:30:00.906222,1.54456699,3.39033055,8.87438107
2016-02-08 18:30:01.156222,1.54217422,3.41186595,8.88873768
2016-02-08 18:30:01.406222,1.52303159,3.42861581,8.91984463
2016-02-08 18:30:01.656222,1.53021014,3.44775844,8.91266632
2016-02-08 18:30:01.906222,1.51585317,3.48125792,8.9294157
2016-02-08 18:30:02.156222,1.51106751,3.48843622,8.89352322
2016-02-08 18:30:02.406222,1.52542448,3.49800754,8.90548801
2016-02-08 18:30:02.656222,1.51824594,3.50040054,8.88395214
2016-02-08 18:30:02.906222,1.53738856,3.51954293,8.87677383
2016-02-08 18:30:03.156222,1.55653107,3.52193594,8.86241722
2016-02-08 18:30:03.406222,1.58285213,3.52432871,8.85763168
2016-02-08 18:30:03.656222,1.59003067,3.51954293,8.86241722
2016-02-08 18:30:03.906222,1.62113738,3.51715016,8.85763168
2016-02-08 18:30:04.156222,1.65224409,3.50757885,8.84327412
2016-02-08 18:30:04.406222,1.66899383,3.50518608,8.84805965
2016-02-08 18:30:04.656222,1.68335068,3.48125792,8.82652473
2016-02-08 18:30:04.906222,1.71206462,3.48604345,8.81934643
2016-02-08 18:30:05.156222,1.72402871,3.5147574,8.81695366
2016-02-08 18:30:05.406222,1.77427805,3.50757885,8.78584671
2016-02-08 18:30:05.656222,1.7455641,3.51236463,8.76191807
2016-02-08 18:30:05.906222,1.75513542,3.53390002,8.73559761
2016-02-08 18:30:06.156222,1.75992107,3.53390002,8.69491959
2016-02-08 18:30:06.406222,1.73120713,3.51715016,8.67577648
2016-02-08 18:30:06.656222,1.70249331,3.55304241,8.65184879
2016-02-08 18:30:06.906222,1.61874449,3.53390002,8.63509846
2016-02-08 18:30:07.156222,1.57328093,3.52432871,8.58484936
2016-02-08 18:30:07.406222,1.52063882,3.54347134,8.58484936
2016-02-08 18:30:07.656222,1.44406843,3.54347134,8.54417133
2016-02-08 18:30:07.906222,1.3842479,3.54107833,8.52981472
2016-02-08 18:30:08.156222,1.33639145,3.56261373,8.50827885
2016-02-08 18:30:08.406222,1.30289197,3.5673995,8.48674393
2016-02-08 18:30:08.656222,1.25503552,3.55064964,8.45773029
2016-02-08 18:30:08.906222,1.22123683,3.59132767,8.43858814
2016-02-08 18:30:09.156222,1.19970143,3.56979227,8.4146595
2016-02-08 18:30:09.406222,1.17577326,3.56979227,8.40269566
2016-02-08 18:30:09.656222,1.15184498,3.56022096,8.39791012
2016-02-08 18:30:09.906222,1.15184498,3.55782819,8.35723209
2016-02-08 18:30:10.156222,1.14705932,3.57218504,8.35723209
2016-02-08 18:30:10.406222,1.15902352,3.54825687,8.3763752
2016-02-08 18:30:10.656222,1.13509524,3.56022096,8.40269566
2016-02-08 18:30:10.906222,1.17098761,3.56500673,8.46999359
2016-02-08 18:30:11.156222,1.18055892,3.5673995,8.51545715
2016-02-08 18:30:11.406222,1.20687997,3.56022096,8.5896349
2016-02-08 18:30:11.656222,1.23080814,3.56979227,8.65184879
2016-02-08 18:30:11.906222,1.24277222,3.53150702,8.71406174
2016-02-08 18:30:12.156222,1.27657092,3.50997162,8.78106117
2016-02-08 18:30:12.406222,1.32442737,3.47886491,8.8289175
2016-02-08 18:30:12.656222,1.35314119,3.42861581,8.90548801
2016-02-08 18:30:12.906222,1.37946224,3.39033055,8.94616604
2016-02-08 18:30:13.156222,1.39381921,3.34456778,9.00120068
2016-02-08 18:30:13.406222,1.41774738,3.29192567,9.04696369
2016-02-08 18:30:13.656222,1.45124698,3.22492671,9.08046246
2016-02-08 18:30:13.906222,1.47517514,3.18185592,9.14267635
2016-02-08 18:30:14.156222,1.49192488,3.16271329,9.19292545
2016-02-08 18:30:14.406222,1.49192488,3.15314198,9.21924686
2016-02-08 18:30:14.656222,1.53021014,3.13160658,9.25753212
2016-02-08 18:30:14.906222,1.54456699,3.12682104,9.28145981
2016-02-08 18:30:15.156222,1.55892396,3.1196425,9.31495953
2016-02-08 18:30:15.406222,1.59242344,3.12921381,9.35563755
2016-02-08 18:30:15.656222,1.61395884,3.13639236,9.32931614
2016-02-08 18:30:15.906222,1.63310146,3.16510606,9.36520863
2016-02-08 18:30:16.156222,1.65463686,3.18424869,9.38195801
2016-02-08 18:30:16.406222,1.62353015,3.19860578,9.36520863
2016-02-08 18:30:16.656222,1.62592304,3.19860578,9.34845924
2016-02-08 18:30:16.906222,1.57328093,3.19860578,9.37717247
2016-02-08 18:30:17.156222,1.51346028,3.19382,9.33888722
2016-02-08 18:30:17.406222,1.48235369,3.21296263,9.32692337
2016-02-08 18:30:17.656222,1.44167566,3.18664146,9.33649445
2016-02-08 18:30:17.906222,1.41296172,3.17946315,9.30060291
2016-02-08 18:30:18.156222,1.3842479,3.16989183,9.27906704
2016-02-08 18:30:18.406222,1.3627125,3.18424869,9.25513935
2016-02-08 18:30:18.656222,1.34117711,3.19142723,9.22163963
2016-02-08 18:30:18.906222,1.33399868,3.19142723,9.19771099
2016-02-08 18:30:19.156222,1.34117711,3.20817685,9.17856884
2016-02-08 18:30:19.406222,1.3627125,3.2153554,9.16421127
2016-02-08 18:30:19.656222,1.36989093,3.22971225,9.14746189
2016-02-08 18:30:19.906222,1.39381921,3.25842619,9.14746189
2016-02-08 18:30:20.156222,1.39142633,3.2895329,9.15224743
2016-02-08 18:30:20.406222,1.41296172,3.29671145,9.1737833
2016-02-08 18:30:20.656222,1.42253304,3.30628276,9.18096161
2016-02-08 18:30:20.906222,1.44646132,3.30388975,9.2048893
2016-02-08 18:30:21.156222,1.43449712,3.3110683,9.23360348
2016-02-08 18:30:21.406222,1.47038949,3.29192567,9.26231766
2016-02-08 18:30:21.656222,1.5014962,3.28714013,9.30778122
2016-02-08 18:30:21.906222,1.49431777,3.28235436,9.35324478
2016-02-08 18:30:22.156222,1.52542448,3.25124788,9.34845924
2016-02-08 18:30:22.406222,1.53499568,3.24167657,9.38913727
2016-02-08 18:30:22.656222,1.55892396,3.23449802,9.43220806
2016-02-08 18:30:22.906222,1.59003067,3.21774817,9.45613575
2016-02-08 18:30:23.156222,1.60917318,3.2153554,9.46570683
2016-02-08 18:30:23.406222,1.63549423,3.20817685,9.49920654
2016-02-08 18:30:23.656222,1.692922,3.19142723,9.50159931
2016-02-08 18:30:23.906222,1.7455641,3.19382,9.51356411
2016-02-08 18:30:24.156222,1.76231384,3.14357066,9.53270626
2016-02-08 18:30:24.406222,1.7886349,3.15314198,9.53031349
2016-02-08 18:30:24.656222,1.81525505,3.16271329,9.54945564
2016-02-08 18:30:24.906222,1.81764793,3.12682104,9.55424213
2016-02-08 18:30:25.156222,1.85114741,3.13160658,9.54945564
2016-02-08 18:30:25.406222,1.85354018,3.16032052,9.51595688
2016-02-08 18:30:25.656222,1.86071873,3.12442827,9.52792072
2016-02-08 18:30:25.906222,1.87746847,3.13639236,9.50638485
2016-02-08 18:30:26.156222,1.8631115,3.15074921,9.49681377
2016-02-08 18:30:26.406222,1.84396899,3.16032052,9.4369936
2016-02-08 18:30:26.656222,1.83200479,3.17467737,9.41545773
2016-02-08 18:30:26.906222,1.75513542,3.18185592,9.39153004
2016-02-08 18:30:27.156222,1.70249331,3.20099855,9.35324478
2016-02-08 18:30:27.406222,1.64267278,3.20578408,9.33410168
2016-02-08 18:30:27.656222,1.54217422,3.20578408,9.34845924
2016-02-08 18:30:27.906222,1.45603263,3.22492671,9.34845924
2016-02-08 18:30:28.156222,1.34356988,3.21296263,9.31256676
2016-02-08 18:30:28.406222,1.23798657,3.24167657,9.31974506
2016-02-08 18:30:28.656222,1.16859472,3.27278328,9.27906704
2016-02-08 18:30:28.906222,1.10638142,3.31824684,9.25753212
2016-02-08 18:30:29.156222,1.06809616,3.32781816,9.21446133
2016-02-08 18:30:29.406222,1.03459668,3.37567449,9.2120676
2016-02-08 18:30:29.656222,1.01545405,3.42861581,9.18335438
2016-02-08 18:30:29.906222,1.00588286,3.43340135,9.17617607
2016-02-08 18:30:30.156222,1.01784694,3.47647214,9.16421127
2016-02-08 18:30:30.406222,1.00588286,3.50757885,9.16899681
2016-02-08 18:30:30.656222,1.01784694,3.53629279,9.15703297
2016-02-08 18:30:30.906222,1.01306129,3.54107833,9.13071251
2016-02-08 18:30:31.156222,1.00348997,3.56022096,9.13310528
2016-02-08 18:30:31.406222,1.01306129,3.57218504,9.15224743
2016-02-08 18:30:31.656222,1.04895365,3.59372044,9.1546402
2016-02-08 18:30:31.906222,1.08006036,3.62721992,9.14985466
2016-02-08 18:30:32.156222,1.0968101,3.64157701,9.1546402
2016-02-08 18:30:32.406222,1.12073827,3.6846478,9.15942574
2016-02-08 18:30:32.656222,1.17338038,3.69421911,9.15703297
2016-02-08 18:30:32.906222,1.22841537,3.72532582,9.16660404
2016-02-08 18:30:33.156222,1.24785698,3.73728991,9.15703297
2016-02-08 18:30:33.406222,1.26221395,3.75164676,9.14985466
2016-02-08 18:30:33.656222,1.33160579,3.75643253,9.13310528
2016-02-08 18:30:33.906222,1.33399868,3.74925399,9.15703297
2016-02-08 18:30:34.156222,1.39142633,3.76600385,9.13549805
2016-02-08 18:30:34.406222,1.38664067,3.76600385,9.14028359
2016-02-08 18:30:34.656222,1.39860487,3.75643253,9.14746189
2016-02-08 18:30:34.906222,1.42492592,3.78275347,9.12353325
2016-02-08 18:30:35.156222,1.41056895,3.79232478,9.12831974
2016-02-08 18:30:35.406222,1.45363975,3.79232478,9.09242725
2016-02-08 18:30:35.656222,1.44167566,3.81386018,9.09960556
2016-02-08 18:30:35.906222,1.45363975,3.82821703,9.06849861
2016-02-08 18:30:36.156222,1.43449712,3.81864595,9.05653477
2016-02-08 18:30:36.406222,1.40339053,3.81864595,9.01555729
2016-02-08 18:30:36.656222,1.38664067,3.80428886,9.01077175
2016-02-08 18:30:36.906222,1.35314119,3.80428886,8.98445129
2016-02-08 18:30:37.156222,1.32203448,3.79711032,8.98205757
2016-02-08 18:30:37.406222,1.33399868,3.77318215,8.96291542
2016-02-08 18:30:37.656222,1.31724882,3.77078939,8.98445129
2016-02-08 18:30:37.906222,1.33160579,3.78275347,8.9796648
2016-02-08 18:30:38.156222,1.32921302,3.77318215,8.9724865
2016-02-08 18:30:38.406222,1.32203448,3.76839662,8.99880791
2016-02-08 18:30:38.656222,1.32203448,3.77557492,9.03978443
2016-02-08 18:30:38.906222,1.31485605,3.77796793,9.06132031
2016-02-08 18:30:39.156222,1.29332066,3.78514624,9.1043911
2016-02-08 18:30:39.406222,1.24546421,3.77796793,9.12114048
2016-02-08 18:30:39.656222,1.21166551,3.80428886,9.17856884
2016-02-08 18:30:39.906222,1.2140584,3.78753924,9.19292545
2016-02-08 18:30:40.156222,1.192523,3.78993201,9.2240324
2016-02-08 18:30:40.406222,1.20448709,3.78514624,9.23121071
2016-02-08 18:30:40.656222,1.23320103,3.76600385,9.2120676
2016-02-08 18:30:40.906222,1.25742829,3.77796793,9.22881794
2016-02-08 18:30:41.156222,1.30767763,3.76121807,9.24078178
2016-02-08 18:30:41.406222,1.32682014,3.77318215,9.23838902
2016-02-08 18:30:41.656222,1.36989093,3.76839662,9.24556732
2016-02-08 18:30:41.906222,1.42731869,3.77318215,9.23360348
2016-02-08 18:30:42.156222,1.48235369,3.74925399,9.22642517
2016-02-08 18:30:42.406222,1.47756803,3.70139742,9.2120676
2016-02-08 18:30:42.656222,1.48713923,3.69182634,9.2120676
2016-02-08 18:30:42.906222,1.53260291,3.63918424,9.18574715
2016-02-08 18:30:43.156222,1.54695988,3.61764884,9.18096161
2016-02-08 18:30:43.406222,1.57088804,3.59611344,9.14985466
2016-02-08 18:30:43.656222,1.61874449,3.5673995,9.14267635
2016-02-08 18:30:43.906222,1.62113738,3.54107833,9.12114048
2016-02-08 18:30:44.156222,1.64267278,3.52911425,9.11874771
2016-02-08 18:30:44.406222,1.64267278,3.51954293,9.12353325
2016-02-08 18:30:44.656222,1.64027989,3.51954293,9.09721279
2016-02-08 18:30:44.906222,1.65702963,3.50757885,9.07089138
2016-02-08 18:30:45.156222,1.65463686,3.49561477,9.08524895
2016-02-08 18:30:45.406222,1.65942252,3.48365068,9.06132031
2016-02-08 18:30:45.656222,1.65224409,3.46450806,9.08524895
2016-02-08 18:30:45.906222,1.65942252,3.4716866,9.07089138
2016-02-08 18:30:46.156222,1.66420817,3.46450806,9.07089138
2016-02-08 18:30:46.406222,1.64745843,3.46450806,9.08046246
2016-02-08 18:30:46.656222,1.65463686,3.46450806,9.08524895
2016-02-08 18:30:46.906222,1.60678041,3.48604345,9.08046246
2016-02-08 18:30:47.156222,1.58763778,3.493222,9.1043911
2016-02-08 18:30:47.406222,1.56610239,3.50279331,9.12831974
2016-02-08 18:30:47.656222,1.49910343,3.51954293,9.15224743
2016-02-08 18:30:47.906222,1.46081817,3.53868556,9.14985466
2016-02-08 18:30:48.156222,1.46081817,3.54586411,9.18096161
2016-02-08 18:30:48.406222,1.44406843,3.58414912,9.1546402
2016-02-08 18:30:48.656222,1.45124698,3.5889349,9.14506912
2016-02-08 18:30:48.906222,1.45363975,3.58414912,9.16421127
2016-02-08 18:30:49.156222,1.44646132,3.61525583,9.1546402
2016-02-08 18:30:49.406222,1.43689001,3.62482715,9.12353325
2016-02-08 18:30:49.656222,1.41296172,3.62721992,9.11635494
2016-02-08 18:30:49.906222,1.42492592,3.64396977,9.09960556
2016-02-08 18:30:50.156222,1.36989093,3.66071963,9.06132031
2016-02-08 18:30:50.406222,1.35792685,3.63918424,9.02034283
2016-02-08 18:30:50.656222,1.32921302,3.62243438,8.9916296
2016-02-08 18:30:50.906222,1.30049908,3.64636254,8.95334435
2016-02-08 18:30:51.156222,1.28614223,3.6631124,8.93180847
2016-02-08 18:30:51.406222,1.24277222,3.65114832,8.88634491
2016-02-08 18:30:51.656222,1.20927274,3.70139742,8.83609581
2016-02-08 18:30:51.906222,1.20448709,3.71096873,8.83131027
2016-02-08 18:30:52.156222,1.15423787,3.73728991,8.76191807
2016-02-08 18:30:52.406222,1.12552393,3.75164676,8.73081207
2016-02-08 18:30:52.656222,1.07288182,3.74925399,8.68295479
2016-02-08 18:30:52.906222,1.02023971,3.77318215,8.63270569
2016-02-08 18:30:53.156222,0.97956175,3.78993201,8.61356354
2016-02-08 18:30:53.406222,0.92931247,3.81146741,8.57049274
2016-02-08 18:30:53.656222,0.8886345,3.83539558,8.51545715
2016-02-08 18:30:53.906222,0.85513496,3.85214543,8.47477913
2016-02-08 18:30:54.156222,0.84317088,3.86650229,8.41705322
2016-02-08 18:30:54.406222,0.81924266,3.90000176,8.36919594
2016-02-08 18:30:54.656222,0.77377904,3.90478754,8.31176853
2016-02-08 18:30:54.906222,0.74506515,3.92153716,8.25912666
2016-02-08 18:30:55.156222,0.69003022,3.93828702,8.2064848
2016-02-08 18:30:55.406222,0.65383881,3.93589425,8.15862751
2016-02-08 18:30:55.656222,0.60358954,3.95294309,8.08923626
2016-02-08 18:30:55.906222,0.59641105,3.92392993,8.03420067
2016-02-08 18:30:56.156222,0.58444691,3.90478754,7.97198772
2016-02-08 18:30:56.406222,0.56051868,3.897609,7.91934586
2016-02-08 18:30:56.656222,0.56291151,3.90957308,7.85922575
2016-02-08 18:30:56.906222,0.58683974,3.92392993,7.81136942
2016-02-08 18:30:57.156222,0.61794645,3.90478754,7.78265572
2016-02-08 18:30:57.406222,0.6442675,3.93589425,7.7204423
2016-02-08 18:30:57.656222,0.65144599,3.93350124,7.70369244
2016-02-08 18:30:57.906222,0.63948184,3.94576454,7.68454981
2016-02-08 18:30:58.156222,0.62512493,3.97687125,7.68454981
2016-02-08 18:30:58.406222,0.60598236,3.95533586,7.68933535
2016-02-08 18:30:58.656222,0.58683974,3.96490717,7.70129967
2016-02-08 18:30:58.906222,0.55573309,3.96969271,7.70847797
2016-02-08 18:30:59.156222,0.5485546,3.96012139,7.72522783
2016-02-08 18:30:59.406222,0.55812585,3.96729994,7.7276206
2016-02-08 18:30:59.656222,0.58444691,3.94815731,7.74197769
2016-02-08 18:30:59.906222,0.59162539,3.95533586,7.80658388
2016-02-08 18:31:00.156222,0.60358954,3.94576454,7.82811928
2016-02-08 18:31:00.406222,0.57966131,3.90000176,7.8903327
2016-02-08 18:31:00.656222,0.57009,3.90478754,7.97916603
2016-02-08 18:31:00.906222,0.56769717,3.90239453,8.050951
2016-02-08 18:31:01.156222,0.54616177,3.91196585,8.06770039
2016-02-08 18:31:01.406222,0.51744789,3.897609,8.09162903
2016-02-08 18:31:01.656222,0.52223355,3.897609,8.10837841
2016-02-08 18:31:01.906222,0.53659046,3.8760736,8.13709259
2016-02-08 18:31:02.156222,0.57487565,3.88325214,8.11794949
2016-02-08 18:31:02.406222,0.57726848,3.87846637,8.13709259
2016-02-08 18:31:02.656222,0.59162539,3.88803768,8.13948536
2016-02-08 18:31:02.906222,0.58683974,3.90478754,8.1514492
2016-02-08 18:31:03.156222,0.59880388,3.90718031,8.16102028
2016-02-08 18:31:03.406222,0.63230336,3.96490717,8.15623474
2016-02-08 18:31:03.656222,0.65623158,3.96729994,8.16580677
2016-02-08 18:31:03.906222,0.69003022,4.03190613,8.1442709
2016-02-08 18:31:04.156222,0.71635127,4.05344153,8.13469982
2016-02-08 18:31:04.406222,0.76181489,4.09411955,8.13469982
2016-02-08 18:31:04.656222,0.76899338,4.11804771,8.12512875
2016-02-08 18:31:04.906222,0.76181489,4.1539402,8.15862751
2016-02-08 18:31:05.156222,0.77377904,4.16590405,8.16102028
2016-02-08 18:31:05.406222,0.72113693,4.18026114,8.16102028
2016-02-08 18:31:05.656222,0.69960153,4.2041893,8.18494892
2016-02-08 18:31:05.906222,0.67537421,4.20658207,8.19452
2016-02-08 18:31:06.156222,0.63230336,4.22333193,8.21844864
2016-02-08 18:31:06.406222,0.59880388,4.24247456,8.22323418
2016-02-08 18:31:06.656222,0.55573309,4.24247456,8.23041248
2016-02-08 18:31:06.906222,0.5102694,4.25204563,8.24955559
2016-02-08 18:31:07.156222,0.46719861,4.26640272,8.27348328
2016-02-08 18:31:07.406222,0.42652065,4.27358103,8.29501915
2016-02-08 18:31:07.656222,0.39780676,4.27358103,8.28783989
2016-02-08 18:31:07.906222,0.38105699,4.30947352,8.27826881
2016-02-08 18:31:08.156222,0.34755749,4.29033089,8.29023361
2016-02-08 18:31:08.406222,0.3188436,4.28554535,8.27587605
2016-02-08 18:31:08.656222,0.27337998,4.31425905,8.23759079
2016-02-08 18:31:08.906222,0.24945176,4.31186628,8.23041248
2016-02-08 18:31:09.156222,0.24945176,4.30468798,8.18255615
2016-02-08 18:31:09.406222,0.20877378,4.29750967,8.15384197
2016-02-08 18:31:09.656222,0.19441684,4.32622337,8.11077118
2016-02-08 18:31:09.906222,0.14895321,4.31904507,8.05812931
2016-02-08 18:31:10.156222,0.12502499,4.32383061,7.98634481
2016-02-08 18:31:10.406222,0.10079765,4.32143784,7.90738154
2016-02-08 18:31:10.656222,0.08883354,4.31904507,7.85444021
2016-02-08 18:31:10.906222,0.05054838,4.31904507,7.81136942
2016-02-08 18:31:11.156222,0.01465604,4.31425905,7.76590586
2016-02-08 18:31:11.406222,-0.0068794,4.33579445,7.72522783
2016-02-08 18:31:11.656222,-0.0451645,4.345366,7.70369244
2016-02-08 18:31:11.906222,-0.0690928,4.38125849,7.68933535
2016-02-08 18:31:12.156222,-0.0762712,4.41236496,7.62472916
2016-02-08 18:31:12.406222,-0.1121636,4.43868589,7.6271224
2016-02-08 18:31:12.656222,-0.1552344,4.47218561,7.62472916
2016-02-08 18:31:12.906222,-0.1791626,4.48893547,7.61515808
2016-02-08 18:31:13.156222,-0.1624128,4.50598431,7.61276531
2016-02-08 18:31:13.406222,-0.1719841,4.5275197,7.62951517
2016-02-08 18:31:13.656222,-0.1911267,4.53230524,7.64387178
2016-02-08 18:31:13.906222,-0.1863411,4.54187632,7.65822887
2016-02-08 18:31:14.156222,-0.2030908,4.54187632,7.71087074
2016-02-08 18:31:14.406222,-0.1863411,4.54666233,7.72283506
2016-02-08 18:31:14.656222,-0.1935195,4.53709078,7.7706914
2016-02-08 18:31:14.906222,-0.1695913,4.56341171,7.82333374
2016-02-08 18:31:15.156222,-0.1695913,4.57537603,7.87119007
2016-02-08 18:31:15.406222,-0.1480559,4.56580448,7.89511824
2016-02-08 18:31:15.656222,-0.1217349,4.5490551,7.95045233
2016-02-08 18:31:15.906222,-0.1169492,4.53230524,8.01027298
2016-02-08 18:31:16.156222,-0.0882353,4.51555538,8.05573654
2016-02-08 18:31:16.406222,-0.0690928,4.49850655,8.08445072
2016-02-08 18:31:16.656222,-0.0810569,4.46261406,8.13948536
2016-02-08 18:31:16.906222,-0.0499502,4.43390036,8.16580677
2016-02-08 18:31:17.156222,-0.0308076,4.42911482,8.22084141
2016-02-08 18:31:17.406222,0.01465604,4.42911482,8.25912666
2016-02-08 18:31:17.656222,0.06969096,4.41475773,8.3141613
2016-02-08 18:31:17.906222,0.10319047,4.41236496,8.37398148
2016-02-08 18:31:18.156222,0.16091733,4.3956151,8.41226673
2016-02-08 18:31:18.406222,0.19920248,4.40757942,8.47717285
2016-02-08 18:31:18.656222,0.22073789,4.38604403,8.53460026
2016-02-08 18:31:18.906222,0.27816564,4.39082956,8.5896349
2016-02-08 18:31:19.156222,0.29730821,4.38365126,8.64945602
2016-02-08 18:31:19.406222,0.33080772,4.38365126,8.69970512
2016-02-08 18:31:19.656222,0.37387854,4.3669014,8.73320484
2016-02-08 18:31:19.906222,0.38344982,4.38125849,8.76191807
2016-02-08 18:31:20.156222,0.40498522,4.3669014,8.78584671
2016-02-08 18:31:20.406222,0.44087759,4.34775877,8.81216717
2016-02-08 18:31:20.656222,0.46959144,4.33579445,8.84805965
2016-02-08 18:31:20.906222,0.44566321,4.34297323,8.89830875
2016-02-08 18:31:21.156222,0.40977088,4.35493708,8.91984463
2016-02-08 18:31:21.406222,0.34755749,4.37168694,8.98445129
2016-02-08 18:31:21.656222,0.3188436,4.36450863,9.0227356
2016-02-08 18:31:21.906222,0.26620153,4.4171505,9.06371307
2016-02-08 18:31:22.156222,0.23748764,4.41236496,9.09242725
2016-02-08 18:31:22.406222,0.17288144,4.44586468,9.13549805
2016-02-08 18:31:22.656222,0.13220345,4.45543575,9.16899681
2016-02-08 18:31:22.906222,0.1055833,4.45304298,9.18813992
2016-02-08 18:31:23.156222,0.08165507,4.47457838,9.23360348
2016-02-08 18:31:23.406222,0.05054838,4.43868589,9.25753212
2016-02-08 18:31:23.656222,0.04576273,4.46500683,9.28385258
2016-02-08 18:31:23.906222,0.02183451,4.46022129,9.31974506
2016-02-08 18:31:24.156222,0.0314058,4.45782852,9.36281586
2016-02-08 18:31:24.406222,0.03858427,4.44107866,9.41306496
2016-02-08 18:31:24.656222,0.01944169,4.43150759,9.42742252
2016-02-08 18:31:24.906222,0.03379862,4.43150759,9.46092129
2016-02-08 18:31:25.156222,0.08644072,4.42193604,9.51595688
2016-02-08 18:31:25.406222,0.11036895,4.40757942,9.54945564
2016-02-08 18:31:25.656222,0.17527425,4.39800787,9.57338429
2016-02-08 18:31:25.906222,0.232702,4.39082956,9.59282589
2016-02-08 18:31:26.156222,0.30927232,4.36929417,9.61675453
2016-02-08 18:31:26.406222,0.34755749,4.36211586,9.61675453
2016-02-08 18:31:26.656222,0.43609193,4.345366,9.63828945
2016-02-08 18:31:26.906222,0.51505506,4.32383061,9.62632561
2016-02-08 18:31:27.156222,0.57966131,4.30708075,9.66461086
2016-02-08 18:31:27.406222,0.66819573,4.30947352,9.67178917
2016-02-08 18:31:27.656222,0.76420772,4.29990244,9.68375301
2016-02-08 18:31:27.906222,0.79531443,4.30468798,9.68136025
2016-02-08 18:31:28.156222,0.8527422,4.29990244,9.67178917
2016-02-08 18:31:28.406222,0.90299147,4.29750967,9.6502533
2016-02-08 18:31:28.656222,0.94606227,4.30947352,9.61196899
2016-02-08 18:31:28.906222,0.95802635,4.34297323,9.62154007
2016-02-08 18:31:29.156222,0.99152589,4.32622337,9.6071825
2016-02-08 18:31:29.406222,1.02023971,4.34058046,9.56859875
2016-02-08 18:31:29.656222,1.01545405,4.36929417,9.54227734
2016-02-08 18:31:29.906222,1.00827563,4.37647247,9.53988457
2016-02-08 18:31:30.156222,0.9843474,4.39082956,9.49681377
2016-02-08 18:31:30.406222,0.99391872,4.40518665,9.47049332
2016-02-08 18:31:30.656222,0.98674023,4.42672205,9.43220806
2016-02-08 18:31:30.906222,0.99631155,4.45065022,9.34606648
2016-02-08 18:31:31.156222,0.9843474,4.44586468,9.29103088
2016-02-08 18:31:31.406222,0.97477615,4.48175669,9.22642517
2016-02-08 18:31:31.656222,0.96281201,4.48654223,9.20249653
2016-02-08 18:31:31.906222,0.9269197,4.49372101,9.15703297
2016-02-08 18:31:32.156222,0.91734839,4.52512693,9.11874771
2016-02-08 18:31:32.406222,0.87427759,4.52512693,9.11396217
2016-02-08 18:31:32.656222,0.85034937,4.55144787,9.08524895
2016-02-08 18:31:32.906222,0.80249292,4.58255434,9.03739166
2016-02-08 18:31:33.156222,0.72831541,4.58255434,8.96291542
2016-02-08 18:31:33.406222,0.6972087,4.60169697,8.93659401
2016-02-08 18:31:33.656222,0.66819573,4.60648251,8.86241722
2016-02-08 18:31:33.906222,0.65383881,4.60887575,8.81216717
2016-02-08 18:31:34.156222,0.60837513,4.6208396,8.74995422
2016-02-08 18:31:34.406222,0.62751776,4.60648251,8.67577648
2016-02-08 18:31:34.656222,0.63469619,4.58733988,8.63749123
2016-02-08 18:31:34.906222,0.63948184,4.60887575,8.57288551
2016-02-08 18:31:35.156222,0.65862441,4.60408974,8.53220749
2016-02-08 18:31:35.406222,0.68255264,4.60408974,8.47956562
2016-02-08 18:31:35.656222,0.72352976,4.60408974,8.42423153
2016-02-08 18:31:35.906222,0.74506515,4.61844683,8.40269566
2016-02-08 18:31:36.156222,0.81684983,4.62323237,8.35244656
2016-02-08 18:31:36.406222,0.85513496,4.62323237,8.35723209
2016-02-08 18:31:36.656222,0.95084792,4.6280179,8.32133961
2016-02-08 18:31:36.906222,0.99152589,4.6280179,8.32373238
2016-02-08 18:31:37.156222,1.0633105,4.60408974,8.30937576
2016-02-08 18:31:37.406222,1.11355984,4.59212589,8.32612515
2016-02-08 18:31:37.656222,1.13748801,4.56341171,8.3644104
2016-02-08 18:31:37.906222,1.18055892,4.53469801,8.3763752
2016-02-08 18:31:38.156222,1.18295169,4.5275197,8.38833904
2016-02-08 18:31:38.406222,1.19013012,4.49132824,8.40269566
2016-02-08 18:31:38.656222,1.21884406,4.48414946,8.42901707
2016-02-08 18:31:38.906222,1.2140584,4.47218561,8.42901707
2016-02-08 18:31:39.156222,1.22362971,4.46261406,8.46012402
2016-02-08 18:31:39.406222,1.20687997,4.46022129,8.49870777
2016-02-08 18:31:39.656222,1.19491577,4.45065022,8.52742195
2016-02-08 18:31:39.906222,1.17338038,4.44347143,8.57288551
2016-02-08 18:31:40.156222,1.15423787,4.45304298,8.58245659
2016-02-08 18:31:40.406222,1.14705932,4.45304298,8.60399246
2016-02-08 18:31:40.656222,1.14466655,4.45782852,8.63270569
2016-02-08 18:31:40.906222,1.11595261,4.46979284,8.64466953
2016-02-08 18:31:41.156222,1.08245313,4.43629313,8.65663433
2016-02-08 18:31:41.406222,1.044168,4.43629313,8.68774128
2016-02-08 18:31:41.656222,0.99870437,4.40757942,8.68295479
2016-02-08 18:31:41.906222,0.95802635,4.39322233,8.69491959
2016-02-08 18:31:42.156222,0.95563352,4.37886524,8.73320484
2016-02-08 18:31:42.406222,0.95324069,4.37886524,8.74995422
2016-02-08 18:31:42.656222,0.94606227,4.3956151,8.75473976
2016-02-08 18:31:42.906222,0.97716892,4.40757942,8.74038315
2016-02-08 18:31:43.156222,0.96759766,4.4171505,8.73799038
2016-02-08 18:31:43.406222,0.95084792,4.45543575,8.69252682
2016-02-08 18:31:43.656222,0.9317053,4.47936392,8.65424156
2016-02-08 18:31:43.906222,0.89820582,4.47218561,8.61834908
2016-02-08 18:31:44.156222,0.88145602,4.49611378,8.608778
2016-02-08 18:31:44.406222,0.82163549,4.50598431,8.55374241
2016-02-08 18:31:44.656222,0.82163549,4.51555538,8.51545715
2016-02-08 18:31:44.906222,0.79052877,4.51316261,8.48674393
2016-02-08 18:31:45.156222,0.77377904,4.52273369,8.45294476
2016-02-08 18:31:45.406222,0.75463647,4.52273369,8.41944599
2016-02-08 18:31:45.656222,0.76899338,4.55862618,8.45294476
2016-02-08 18:31:45.906222,0.75463647,4.56819773,8.47717285
2016-02-08 18:31:46.156222,0.76181489,4.58255434,8.53220749
2016-02-08 18:31:46.406222,0.74506515,4.61126852,8.62792015
2016-02-08 18:31:46.656222,0.75224364,4.66151762,8.70209789
2016-02-08 18:31:46.906222,0.74985081,4.66151762,8.78584671
2016-02-08 18:31:47.156222,0.75463647,4.65194655,8.85045242
2016-02-08 18:31:47.406222,0.77377904,4.62562513,8.92463017
2016-02-08 18:31:47.656222,0.78813595,4.60887575,8.99880791
2016-02-08 18:31:47.906222,0.80249292,4.5490551,9.04935646
2016-02-08 18:31:48.156222,0.82402831,4.5275197,9.09721279
2016-02-08 18:31:48.406222,0.82881397,4.46500683,9.13789082
2016-02-08 18:31:48.656222,0.85513496,4.41475773,9.18813992
2016-02-08 18:31:48.906222,0.9269197,4.36450863,9.25513935
2016-02-08 18:31:49.156222,0.92931247,4.33818722,9.29103088
2016-02-08 18:31:49.406222,0.96759766,4.29990244,9.3173523
2016-02-08 18:31:49.656222,1.01306129,4.28075981,9.32931614
2016-02-08 18:31:49.906222,1.07527471,4.25443888,9.34367371
2016-02-08 18:31:50.156222,1.12791681,4.25443888,9.34367371
2016-02-08 18:31:50.406222,1.18295169,4.25443888,9.34128094
2016-02-08 18:31:50.656222,1.2669996,4.24486733,9.35803032
2016-02-08 18:31:50.906222,1.30767763,4.24247456,9.36520863
2016-02-08 18:31:51.156222,1.36031961,4.23768902,9.34606648
2016-02-08 18:31:51.406222,1.41056895,4.22093916,9.34367371
2016-02-08 18:31:51.656222,1.44646132,4.22333193,9.34845924
2016-02-08 18:31:51.906222,1.48474646,4.19222546,9.30778122
2016-02-08 18:31:52.156222,1.48474646,4.19701099,9.29342365
2016-02-08 18:31:52.406222,1.47756803,4.20658207,9.28145981
2016-02-08 18:31:52.656222,1.48235369,4.18983269,9.28624535
2016-02-08 18:31:52.906222,1.47517514,4.20658207,9.25992489
2016-02-08 18:31:53.156222,1.48953211,4.20658207,9.26471043
2016-02-08 18:31:53.406222,1.48953211,4.20179653,9.26949596
2016-02-08 18:31:53.656222,1.49192488,4.18743944,9.29581642
2016-02-08 18:31:53.906222,1.4584254,4.18026114,9.32931614
2016-02-08 18:31:54.156222,1.41056895,4.18026114,9.30299568
2016-02-08 18:31:54.406222,1.36749816,4.19940376,9.29581642
2016-02-08 18:31:54.656222,1.29332066,4.19701099,9.2742815
2016-02-08 18:31:54.906222,1.24785698,4.22333193,9.2240324
2016-02-08 18:31:55.156222,1.18295169,4.23290348,9.18096161
2016-02-08 18:31:55.406222,1.12313116,4.24965286,9.14506912
2016-02-08 18:31:55.656222,1.06570339,4.27358103,9.12353325
2016-02-08 18:31:55.906222,1.02741826,4.30468798,9.11635494
2016-02-08 18:31:56.156222,0.99631155,4.33100891,9.12353325
2016-02-08 18:31:56.406222,0.96041918,4.34775877,9.13310528
2016-02-08 18:31:56.656222,0.94127661,4.37886524,9.13789082
2016-02-08 18:31:56.906222,0.90777707,4.40757942,9.13549805
2016-02-08 18:31:57.156222,0.87427759,4.42432928,9.12831974
2016-02-08 18:31:57.406222,0.84077805,4.42911482,9.10678387
2016-02-08 18:31:57.656222,0.82163549,4.40757942,9.08524895
2016-02-08 18:31:57.906222,0.81206417,4.40279388,9.05174923
2016-02-08 18:31:58.156222,0.80727851,4.38843679,9.04457092
2016-02-08 18:31:58.406222,0.75224364,4.38125849,9.04935646
2016-02-08 18:31:58.656222,0.74745798,4.37168694,9.05174923
2016-02-08 18:31:58.906222,0.74985081,4.38125849,9.03978443
2016-02-08 18:31:59.156222,0.74267232,4.3669014,9.00120068
2016-02-08 18:31:59.406222,0.75463647,4.3669014,8.98445129
2016-02-08 18:31:59.656222,0.77377904,4.38843679,8.90788078
2016-02-08 18:31:59.906222,0.78335029,4.39800787,8.84088135
2016-02-08 18:32:00.156222,0.83120674,4.42193604,8.79063225
2016-02-08 18:32:00.406222,0.81684983,4.41236496,8.74277592
2016-02-08 18:32:00.656222,0.8359924,4.42193604,8.71166897
2016-02-08 18:32:00.906222,0.82881397,4.43150759,8.6590271
2016-02-08 18:32:01.156222,0.87906319,4.42911482,8.60159874
2016-02-08 18:32:01.406222,0.9317053,4.45543575,8.57767105
2016-02-08 18:32:01.656222,0.96759766,4.47936392,8.54177856
2016-02-08 18:32:01.906222,1.00827563,4.49132824,8.50110054
2016-02-08 18:32:02.156222,1.03938234,4.51316261,8.44098091
2016-02-08 18:32:02.406222,1.08963156,4.54426909,8.4146595
2016-02-08 18:32:02.656222,1.13030958,4.57298327,8.35483933
2016-02-08 18:32:02.906222,1.13030958,4.63758946,8.30937576
2016-02-08 18:32:03.156222,1.1183455,4.63519669,8.28066158
2016-02-08 18:32:03.406222,1.13748801,4.66630316,8.21844864
2016-02-08 18:32:03.656222,1.11595261,4.68066025,8.17537785
2016-02-08 18:32:03.906222,1.10638142,4.68783855,8.163414
2016-02-08 18:32:04.156222,1.07527471,4.69262409,8.12991428
2016-02-08 18:32:04.406222,1.06570339,4.69741011,8.11794949
2016-02-08 18:32:04.656222,1.06570339,4.69501734,8.11555672
2016-02-08 18:32:04.906222,1.03698957,4.65912485,8.13230705
2016-02-08 18:32:05.156222,0.99152589,4.66151762,8.17777062
2016-02-08 18:32:05.406222,0.95802635,4.63998222,8.22562695
2016-02-08 18:32:05.656222,0.93888378,4.62323237,8.27587605
2016-02-08 18:32:05.906222,0.89102733,4.59212589,8.32851791
2016-02-08 18:32:06.156222,0.84556371,4.55623341,8.37876797
2016-02-08 18:32:06.406222,0.79770726,4.5275197,8.43619537
2016-02-08 18:32:06.656222,0.77856469,4.49611378,8.47477913
2016-02-08 18:32:06.906222,0.72831541,4.48414946,8.52502918
2016-02-08 18:32:07.156222,0.68255264,4.46979284,8.56092167
2016-02-08 18:32:07.406222,0.64187467,4.46261406,8.60159874
2016-02-08 18:32:07.656222,0.61076796,4.46500683,8.60399246
2016-02-08 18:32:07.906222,0.57248282,4.47218561,8.63749123
2016-02-08 18:32:08.156222,0.55334026,4.47697115,8.63509846
2016-02-08 18:32:08.406222,0.53659046,4.46261406,8.67338371
2016-02-08 18:32:08.656222,0.50069815,4.48414946,8.6590271
2016-02-08 18:32:08.906222,0.51266223,4.44825745,8.67577648
2016-02-08 18:32:09.156222,0.47916272,4.46261406,8.7092762
2016-02-08 18:32:09.406222,0.46480581,4.45543575,8.69731236
2016-02-08 18:32:09.656222,0.4552345,4.44107866,8.70688343
2016-02-08 18:32:09.906222,0.46480581,4.45304298,8.71884728
2016-02-08 18:32:10.156222,0.44566321,4.43390036,8.71166897
2016-02-08 18:32:10.406222,0.47916272,4.42193604,8.70449066
2016-02-08 18:32:10.656222,0.48873404,4.42432928,8.69252682
2016-02-08 18:32:10.906222,0.53898329,4.43868589,8.69252682
2016-02-08 18:32:11.156222,0.53898329,4.44586468,8.68295479
2016-02-08 18:32:11.406222,0.56291151,4.44586468,8.66859818
2016-02-08 18:32:11.656222,0.57009,4.45543575,8.67577648
2016-02-08 18:32:11.906222,0.59162539,4.47218561,8.66859818
2016-02-08 18:32:12.156222,0.60598236,4.49132824,8.67099094
2016-02-08 18:32:12.406222,0.61555362,4.51794815,8.68774128
2016-02-08 18:32:12.656222,0.63708901,4.52512693,8.65424156
2016-02-08 18:32:12.906222,0.60837513,4.50837708,8.66620541
2016-02-08 18:32:13.156222,0.65623158,4.51316261,8.67099094
2016-02-08 18:32:13.406222,0.63469619,4.51794815,8.66381264
2016-02-08 18:32:13.656222,0.65862441,4.51076984,8.64227676
2016-02-08 18:32:13.906222,0.65623158,4.53230524,8.64945602
2016-02-08 18:32:14.156222,0.66101724,4.53709078,8.639884
2016-02-08 18:32:14.406222,0.67776704,4.5490551,8.59442043
2016-02-08 18:32:14.656222,0.67298138,4.54666233,8.62552738
2016-02-08 18:32:14.906222,0.64905316,4.54426909,8.639884
2016-02-08 18:32:15.156222,0.65383881,4.56580448,8.66141987
2016-02-08 18:32:15.406222,0.64905316,4.56819773,8.66141987
2016-02-08 18:32:15.656222,0.66341007,4.58016157,8.67816925
2016-02-08 18:32:15.906222,0.63230336,4.55862618,8.73799038
2016-02-08 18:32:16.156222,0.61316079,4.55623341,8.74756146
2016-02-08 18:32:16.406222,0.60598236,4.56819773,8.80020332
2016-02-08 18:32:16.656222,0.60358954,4.56101894,8.82652473
2016-02-08 18:32:16.906222,0.59162539,4.55144787,8.83848858
2016-02-08 18:32:17.156222,0.55334026,4.56101894,8.86720276
2016-02-08 18:32:17.406222,0.5485546,4.55384064,8.89113045
2016-02-08 18:32:17.656222,0.55812585,4.53230524,8.90548801
2016-02-08 18:32:17.906222,0.53898329,4.53230524,8.9222374
2016-02-08 18:32:18.156222,0.5485546,4.52034092,8.91984463
2016-02-08 18:32:18.406222,0.53898329,4.53948355,8.9294157
2016-02-08 18:32:18.656222,0.57009,4.51316261,8.9222374
2016-02-08 18:32:18.906222,0.59162539,4.53469801,8.92702293
2016-02-08 18:32:19.156222,0.58923256,4.52991247,8.96770096
2016-02-08 18:32:19.406222,0.59401822,4.52991247,8.98923683
2016-02-08 18:32:19.656222,0.62033927,4.53948355,8.99402237
2016-02-08 18:32:19.906222,0.60119671,4.51794815,9.00837898
2016-02-08 18:32:20.156222,0.6227321,4.5275197,9.00598621
2016-02-08 18:32:20.406222,0.63708901,4.48654223,9.01795006
2016-02-08 18:32:20.656222,0.62033927,4.48654223,9.03739166
2016-02-08 18:32:20.906222,0.61076796,4.47936392,9.02512837
2016-02-08 18:32:21.156222,0.62033927,4.47457838,9.04696369
2016-02-08 18:32:21.406222,0.60837513,4.44347143,9.0421772
2016-02-08 18:32:21.656222,0.62033927,4.45782852,9.03021336
2016-02-08 18:32:21.906222,0.63948184,4.44347143,9.04696369
2016-02-08 18:32:22.156222,0.62512493,4.44347143,9.03739166
2016-02-08 18:32:22.406222,0.62033927,4.43390036,9.03021336
2016-02-08 18:32:22.656222,0.63230336,4.42432928,9.02034283
2016-02-08 18:32:22.906222,0.63708901,4.41236496,9.02034283
2016-02-08 18:32:23.156222,0.65623158,4.4171505,8.99641514
2016-02-08 18:32:23.406222,0.63469619,4.42432928,9.01316452
2016-02-08 18:32:23.656222,0.64666033,4.40279388,8.9916296
2016-02-08 18:32:23.906222,0.6442675,4.40279388,8.98205757
2016-02-08 18:32:24.156222,0.62991059,4.39082956,8.9796648
2016-02-08 18:32:24.406222,0.61316079,4.37886524,8.95334435
2016-02-08 18:32:24.656222,0.60837513,4.38604403,8.94855881
2016-02-08 18:32:24.906222,0.62991059,4.37886524,8.90309525
2016-02-08 18:32:25.156222,0.60598236,4.37886524,8.90548801
2016-02-08 18:32:25.406222,0.59401822,4.32861614,8.89352322
2016-02-08 18:32:25.656222,0.58683974,4.36450863,8.86002445
2016-02-08 18:32:25.906222,0.56769717,4.345366,8.85045242
2016-02-08 18:32:26.156222,0.53419763,4.3669014,8.85045242
2016-02-08 18:32:26.406222,0.53659046,4.36211586,8.85763168
2016-02-08 18:32:26.656222,0.52223355,4.38365126,8.86720276
2016-02-08 18:32:26.906222,0.5102694,4.41236496,8.86241722
2016-02-08 18:32:27.156222,0.49591249,4.42193604,8.87438107
2016-02-08 18:32:27.406222,0.50787664,4.41236496,8.86720276
2016-02-08 18:32:27.656222,0.51744789,4.42432928,8.88155937
2016-02-08 18:32:27.906222,0.53180486,4.42911482,8.88395214
2016-02-08 18:32:28.156222,0.53180486,4.40757942,8.88395214
2016-02-08 18:32:28.406222,0.56769717,4.41236496,8.88634491
2016-02-08 18:32:28.656222,0.59401822,4.38604403,8.91027355
2016-02-08 18:32:28.906222,0.61316079,4.39322233,8.89113045
2016-02-08 18:32:29.156222,0.61555362,4.38365126,8.89352322
2016-02-08 18:32:29.406222,0.6658029,4.35015154,8.90548801
2016-02-08 18:32:29.656222,0.68015981,4.35732985,8.88873768
2016-02-08 18:32:29.906222,0.72352976,4.35254431,8.89352322
2016-02-08 18:32:30.156222,0.75224364,4.37886524,8.89113045
2016-02-08 18:32:30.406222,0.78335029,4.36211586,8.88634491
2016-02-08 18:32:30.656222,0.77617186,4.36929417,8.86480999
2016-02-08 18:32:30.906222,0.79531443,4.37886524,8.86959553
2016-02-08 18:32:31.156222,0.82402831,4.37168694,8.86480999
2016-02-08 18:32:31.406222,0.84795654,4.36450863,8.86720276
2016-02-08 18:32:31.656222,0.85513496,4.3740797,8.87438107
2016-02-08 18:32:31.906222,0.87667042,4.37168694,8.8791666
2016-02-08 18:32:32.156222,0.86949194,4.35254431,8.89113045
2016-02-08 18:32:32.406222,0.87906319,4.36211586,8.88155937
2016-02-08 18:32:32.656222,0.85992062,4.34297323,8.88634491
2016-02-08 18:32:32.906222,0.8527422,4.35015154,8.8791666
2016-02-08 18:32:33.156222,0.84795654,4.33818722,8.86959553
2016-02-08 18:32:33.406222,0.82402831,4.345366,8.86959553
2016-02-08 18:32:33.656222,0.83359957,4.33818722,8.88873768
2016-02-08 18:32:33.906222,0.79531443,4.36211586,8.90070248
2016-02-08 18:32:34.156222,0.78095752,4.34775877,8.91984463
2016-02-08 18:32:34.406222,0.80010009,4.33818722,8.91984463
2016-02-08 18:32:34.656222,0.75702924,4.35972309,8.93898678
2016-02-08 18:32:34.906222,0.73549384,4.34058046,8.9724865
2016-02-08 18:32:35.156222,0.70917279,4.35254431,9.00359345
2016-02-08 18:32:35.406222,0.6972087,4.33340168,9.01555729
2016-02-08 18:32:35.656222,0.69242305,4.33579445,9.00120068
2016-02-08 18:32:35.906222,0.70438719,4.31904507,8.98684406
2016-02-08 18:32:36.156222,0.69481587,4.31186628,8.98684406
2016-02-08 18:32:36.406222,0.73549384,4.29750967,8.9796648
2016-02-08 18:32:36.656222,0.71156561,4.29750967,8.98205757
2016-02-08 18:32:36.906222,0.73549384,4.30229521,8.98923683
2016-02-08 18:32:37.156222,0.75224364,4.30468798,8.9916296
2016-02-08 18:32:37.406222,0.78574312,4.30468798,8.98205757
2016-02-08 18:32:37.656222,0.80249292,4.29272366,8.96530819
2016-02-08 18:32:37.906222,0.81924266,4.31904507,8.96291542
2016-02-08 18:32:38.156222,0.84077805,4.31665182,8.97009373
2016-02-08 18:32:38.406222,0.86470628,4.32861614,8.93659401
2016-02-08 18:32:38.656222,0.86949194,4.31425905,8.9222374
2016-02-08 18:32:38.906222,0.89102733,4.30229521,8.90309525
2016-02-08 18:32:39.156222,0.90059865,4.32622337,8.88873768
2016-02-08 18:32:39.406222,0.91495556,4.31425905,8.8791666
2016-02-08 18:32:39.656222,0.91734839,4.30947352,8.86480999
2016-02-08 18:32:39.906222,0.91974121,4.30229521,8.84088135
2016-02-08 18:32:40.156222,0.92931247,4.30468798,8.84088135
2016-02-08 18:32:40.406222,0.94127661,4.34775877,8.84327412
2016-02-08 18:32:40.656222,0.92931247,4.35254431,8.80498886
2016-02-08 18:32:40.906222,0.9484551,4.37168694,8.7786684
2016-02-08 18:32:41.156222,0.9484551,4.38125849,8.79781056
2016-02-08 18:32:41.406222,0.9484551,4.38125849,8.80259609
2016-02-08 18:32:41.656222,0.92931247,4.39800787,8.74756146
2016-02-08 18:32:41.906222,0.90538424,4.38365126,8.75713253
2016-02-08 18:32:42.156222,0.89820582,4.40279388,8.75234699
2016-02-08 18:32:42.406222,0.89102733,4.40040064,8.76909638
2016-02-08 18:32:42.656222,0.86709911,4.40757942,8.73081207
2016-02-08 18:32:42.906222,0.84317088,4.39800787,8.74038315
2016-02-08 18:32:43.156222,0.87188476,4.3956151,8.73320484
2016-02-08 18:32:43.406222,0.87667042,4.41475773,8.72602558
2016-02-08 18:32:43.656222,0.85513496,4.41954327,8.74038315
2016-02-08 18:32:43.906222,0.86470628,4.42672205,8.71884728
2016-02-08 18:32:44.156222,0.87667042,4.40997219,8.69731236
2016-02-08 18:32:44.406222,0.87667042,4.42911482,8.6590271
2016-02-08 18:32:44.656222,0.86470628,4.4171505,8.66141987
2016-02-08 18:32:44.906222,0.84077805,4.41954327,8.68295479
2016-02-08 18:32:45.156222,0.8359924,4.43629313,8.63270569
2016-02-08 18:32:45.406222,0.83120674,4.44347143,8.64466953
2016-02-08 18:32:45.656222,0.82881397,4.46022129,8.62552738
2016-02-08 18:32:45.906222,0.81206417,4.45782852,8.60399246
2016-02-08 18:32:46.156222,0.7929216,4.45782852,8.5896349
2016-02-08 18:32:46.406222,0.82163549,4.46740007,8.59202766
2016-02-08 18:32:46.656222,0.82163549,4.48654223,8.56570721
2016-02-08 18:32:46.906222,0.82402831,4.50359154,8.55852795
2016-02-08 18:32:47.156222,0.8359924,4.50359154,8.53460026
2016-02-08 18:32:47.406222,0.8359924,4.51316261,8.52981472
2016-02-08 18:32:47.656222,0.82881397,4.5275197,8.53460026
2016-02-08 18:32:47.906222,0.82881397,4.51794815,8.51785088
2016-02-08 18:32:48.156222,0.82881397,4.54666233,8.4891367
2016-02-08 18:32:48.406222,0.84556371,4.55862618,8.46490955
2016-02-08 18:32:48.656222,0.85513496,4.54426909,8.44815922
2016-02-08 18:32:48.906222,0.86231345,4.56819773,8.46012402
2016-02-08 18:32:49.156222,0.86709911,4.5777688,8.42183876
2016-02-08 18:32:49.406222,0.85992062,4.55144787,8.40269566
2016-02-08 18:32:49.656222,0.8527422,4.54426909,8.39073181
2016-02-08 18:32:49.906222,0.8527422,4.55384064,8.38833904
2016-02-08 18:32:50.156222,0.83359957,4.56341171,8.35244656
2016-02-08 18:32:50.406222,0.84556371,4.56101894,8.33091068
2016-02-08 18:32:50.656222,0.84556371,4.56341171,8.30459023
2016-02-08 18:32:50.906222,0.82881397,4.55862618,8.3141613
2016-02-08 18:32:51.156222,0.8359924,4.5705905,8.29741192
2016-02-08 18:32:51.406222,0.82163549,4.56580448,8.30937576
2016-02-08 18:32:51.656222,0.84795654,4.57537603,8.3141613
2016-02-08 18:32:51.906222,0.81206417,4.59212589,8.31894684
2016-02-08 18:32:52.156222,0.814457,4.58494711,8.29980469
2016-02-08 18:32:52.406222,0.80727851,4.57298327,8.30698299
2016-02-08 18:32:52.656222,0.80249292,4.58255434,8.28305435
2016-02-08 18:32:52.906222,0.82163549,4.57298327,8.27587605
2016-02-08 18:32:53.156222,0.80967134,4.57298327,8.28066158
2016-02-08 18:32:53.406222,0.81684983,4.56341171,8.29501915
2016-02-08 18:32:53.656222,0.84077805,4.56341171,8.29501915
2016-02-08 18:32:53.906222,0.8359924,4.5490551,8.30937576
2016-02-08 18:32:54.156222,0.84077805,4.5490551,8.31655407
2016-02-08 18:32:54.406222,0.86470628,4.54666233,8.32373238
2016-02-08 18:32:54.656222,0.88384885,4.51555538,8.32612515
2016-02-08 18:32:54.906222,0.90059865,4.55623341,8.33091068
2016-02-08 18:32:55.156222,0.8886345,4.55862618,8.34766102
2016-02-08 18:32:55.406222,0.9269197,4.55144787,8.34048271
2016-02-08 18:32:55.656222,0.9484551,4.55144787,8.35483933
2016-02-08 18:32:55.906222,1.0010972,4.5490551,8.39073181
2016-02-08 18:32:56.156222,1.02981103,4.55384064,8.39791012
2016-02-08 18:32:56.406222,1.02502537,4.54187632,8.40269566
2016-02-08 18:32:56.656222,1.05134642,4.54426909,8.40748119
2016-02-08 18:32:56.906222,1.05613208,4.53469801,8.41944599
2016-02-08 18:32:57.156222,1.0633105,4.53469801,8.42423153
2016-02-08 18:32:57.406222,1.04895365,4.54187632,8.41944599
2016-02-08 18:32:57.656222,1.03220391,4.53469801,8.41226673
2016-02-08 18:32:57.906222,1.01545405,4.51316261,8.40748119
2016-02-08 18:32:58.156222,1.04656076,4.51794815,8.41944599
2016-02-08 18:32:58.406222,1.03459668,4.51555538,8.40748119
2016-02-08 18:32:58.656222,1.05134642,4.51076984,8.41944599
2016-02-08 18:32:58.906222,1.03220391,4.49850655,8.41705322
2016-02-08 18:32:59.156222,1.01545405,4.50837708,8.42183876
2016-02-08 18:32:59.406222,1.00827563,4.50598431,8.44337368
2016-02-08 18:32:59.656222,0.99391872,4.51794815,8.43380261
2016-02-08 18:32:59.906222,0.96281201,4.51555538,8.43858814
2016-02-08 18:33:00.156222,0.9317053,4.52991247,8.43380261
2016-02-08 18:33:00.406222,0.92213404,4.53469801,8.44815922
2016-02-08 18:33:00.656222,0.91495556,4.53709078,8.45533752
2016-02-08 18:33:00.906222,0.91256273,4.5490551,8.44337368
2016-02-08 18:33:01.156222,0.9101699,4.5490551,8.42423153
2016-02-08 18:33:01.406222,0.91734839,4.56819773,8.44576645
2016-02-08 18:33:01.656222,0.9484551,4.55144787,8.44815922
2016-02-08 18:33:01.906222,0.9269197,4.55862618,8.41705322
2016-02-08 18:33:02.156222,0.91974121,4.55384064,8.4146595
2016-02-08 18:33:02.406222,0.93649095,4.55623341,8.41944599
2016-02-08 18:33:02.656222,0.93649095,4.55862618,8.42901707
2016-02-08 18:33:02.906222,0.94127661,4.55862618,8.41226673
2016-02-08 18:33:03.156222,0.94127661,4.56101894,8.42423153
2016-02-08 18:33:03.406222,0.95084792,4.55623341,8.40030289
2016-02-08 18:33:03.656222,0.94366944,4.56341171,8.39312458
2016-02-08 18:33:03.906222,0.96281201,4.5705905,8.40508843
2016-02-08 18:33:04.156222,0.98195458,4.56819773,8.40987396
2016-02-08 18:33:04.406222,0.97238332,4.57298327,8.43380261
2016-02-08 18:33:04.656222,0.97238332,4.5777688,8.44098091
2016-02-08 18:33:04.906222,0.9843474,4.58973312,8.47238636
2016-02-08 18:33:05.156222,0.98913306,4.58733988,8.46490955
2016-02-08 18:33:05.406222,0.98674023,4.58255434,8.50349331
2016-02-08 18:33:05.656222,0.98913306,4.57537603,8.50110054
2016-02-08 18:33:05.906222,0.99152589,4.5705905,8.496315
2016-02-08 18:33:06.156222,0.99631155,4.56819773,8.52742195
2016-02-08 18:33:06.406222,1.01784694,4.55144787,8.55613518
2016-02-08 18:33:06.656222,1.044168,4.53948355,8.53460026
2016-02-08 18:33:06.906222,1.02981103,4.50837708,8.55852795
2016-02-08 18:33:07.156222,1.04656076,4.52273369,8.55613518
2016-02-08 18:33:07.406222,1.044168,4.52991247,8.60399246
2016-02-08 18:33:07.656222,1.05373931,4.5275197,8.60399246
2016-02-08 18:33:07.906222,1.06809616,4.51316261,8.60399246
2016-02-08 18:33:08.156222,1.05852497,4.51794815,8.61117077
2016-02-08 18:33:08.406222,1.05134642,4.49372101,8.61356354
2016-02-08 18:33:08.656222,1.05373931,4.47936392,8.5896349
2016-02-08 18:33:08.906222,1.04177511,4.49611378,8.58245659
2016-02-08 18:33:09.156222,1.02741826,4.52273369,8.5968132
2016-02-08 18:33:09.406222,1.0226326,4.5275197,8.61117077
2016-02-08 18:33:09.656222,1.00348997,4.51794815,8.62074184
2016-02-08 18:33:09.906222,1.00348997,4.53230524,8.61356354
2016-02-08 18:33:10.156222,1.00588286,4.51794815,8.61117077
2016-02-08 18:33:10.406222,0.96999049,4.51794815,8.60399246
2016-02-08 18:33:10.656222,0.98913306,4.50837708,8.64706326
2016-02-08 18:33:10.906222,0.98195458,4.53230524,8.63749123
2016-02-08 18:33:11.156222,0.96041918,4.52273369,8.62552738
2016-02-08 18:33:11.406222,0.95802635,4.53469801,8.608778
2016-02-08 18:33:11.656222,0.97238332,4.54426909,8.5896349
2016-02-08 18:33:11.906222,0.95563352,4.56341171,8.58724213
2016-02-08 18:33:12.156222,0.94606227,4.53948355,8.58245659
2016-02-08 18:33:12.406222,0.9269197,4.53709078,8.57049274
2016-02-08 18:33:12.656222,0.93649095,4.52991247,8.56092167
2016-02-08 18:33:12.906222,0.9317053,4.55144787,8.54177856
2016-02-08 18:33:13.156222,0.94366944,4.53230524,8.56092167
2016-02-08 18:33:13.406222,0.93888378,4.54187632,8.55134964
2016-02-08 18:33:13.656222,0.93888378,4.53469801,8.52024365
2016-02-08 18:33:13.906222,0.94366944,4.53948355,8.52502918
2016-02-08 18:33:14.156222,0.9484551,4.53948355,8.54177856
2016-02-08 18:33:14.406222,0.92452687,4.53230524,8.55613518
2016-02-08 18:33:14.656222,0.9317053,4.52273369,8.53460026
2016-02-08 18:33:14.906222,0.93409813,4.53469801,8.55613518
2016-02-08 18:33:15.156222,0.95802635,4.55384064,8.5393858
2016-02-08 18:33:15.406222,0.96520484,4.56101894,8.53699303
2016-02-08 18:33:15.656222,0.99152589,4.54426909,8.56092167
2016-02-08 18:33:15.906222,0.98674023,4.52034092,8.5393858
2016-02-08 18:33:16.156222,0.9843474,4.53709078,8.55613518
2016-02-08 18:33:16.406222,0.97238332,4.52512693,8.55852795
2016-02-08 18:33:16.656222,0.98674023,4.52273369,8.60159874
2016-02-08 18:33:16.906222,0.99870437,4.49611378,8.60638523
2016-02-08 18:33:17.156222,1.00348997,4.51076984,8.61356354
2016-02-08 18:33:17.406222,1.01306129,4.49372101,8.63031292
2016-02-08 18:33:17.656222,1.02741826,4.50119829,8.63509846
2016-02-08 18:33:17.906222,1.02981103,4.49611378,8.64945602
2016-02-08 18:33:18.156222,1.05373931,4.52273369,8.67338371
2016-02-08 18:33:18.406222,1.0633105,4.50598431,8.68295479
2016-02-08 18:33:18.656222,1.06809616,4.49132824,8.69491959
2016-02-08 18:33:18.906222,1.08006036,4.50359154,8.74277592
2016-02-08 18:33:19.156222,1.08723879,4.49372101,8.71884728
2016-02-08 18:33:19.406222,1.09441721,4.47457838,8.70449066
2016-02-08 18:33:19.656222,1.10877419,4.46022129,8.72841835
2016-02-08 18:33:19.906222,1.13509524,4.48654223,8.7092762
2016-02-08 18:33:20.156222,1.1398809,4.48654223,8.71645451
2016-02-08 18:33:20.406222,1.13748801,4.44825745,8.71645451
2016-02-08 18:33:20.656222,1.11595261,4.42672205,8.71166897
2016-02-08 18:33:20.906222,1.1183455,4.46261406,8.69731236
2016-02-08 18:33:21.156222,1.10159576,4.45782852,8.70449066
2016-02-08 18:33:21.406222,1.10877419,4.43629313,8.67816925
2016-02-08 18:33:21.656222,1.09920287,4.42432928,8.66381264
2016-02-08 18:33:21.906222,1.0968101,4.44347143,8.68056202
2016-02-08 18:33:22.156222,1.08484602,4.43150759,8.66620541
2016-02-08 18:33:22.406222,1.09202445,4.44347143,8.67338371
2016-02-08 18:33:22.656222,1.08484602,4.45304298,8.65663433
2016-02-08 18:33:22.906222,1.05134642,4.45065022,8.65184879
2016-02-08 18:33:23.156222,1.0226326,4.47697115,8.64227676
2016-02-08 18:33:23.406222,1.01545405,4.44586468,8.63509846
2016-02-08 18:33:23.656222,1.01545405,4.45065022,8.61117077
2016-02-08 18:33:23.906222,1.00348997,4.46022129,8.61117077
2016-02-08 18:33:24.156222,1.01306129,4.48175669,8.59442043
2016-02-08 18:33:24.406222,1.00827563,4.46261406,8.55852795
2016-02-08 18:33:24.656222,1.0010972,4.47218561,8.57049274
2016-02-08 18:33:24.906222,1.00588286,4.44107866,8.56331444
2016-02-08 18:33:25.156222,1.0010972,4.45782852,8.56331444
2016-02-08 18:33:25.406222,1.00827563,4.46261406,8.5896349
2016-02-08 18:33:25.656222,0.98195458,4.45782852,8.57288551
2016-02-08 18:33:25.906222,0.98674023,4.48175669,8.55374241
2016-02-08 18:33:26.156222,0.97238332,4.48175669,8.55374241
2016-02-08 18:33:26.406222,0.98195458,4.50837708,8.57049274
2016-02-08 18:33:26.656222,1.0010972,4.49132824,8.56092167
2016-02-08 18:33:26.906222,0.99391872,4.50359154,8.5465641
2016-02-08 18:33:27.156222,0.97716892,4.50837708,8.55374241
2016-02-08 18:33:27.406222,0.99391872,4.48654223,8.55374241
2016-02-08 18:33:27.656222,0.97956175,4.50359154,8.57767105
2016-02-08 18:33:27.906222,0.98674023,4.51316261,8.56092167
2016-02-08 18:33:28.156222,0.95563352,4.50837708,8.55613518
2016-02-08 18:33:28.406222,0.96281201,4.50359154,8.5465641
2016-02-08 18:33:28.656222,0.95563352,4.50119829,8.55374241
2016-02-08 18:33:28.906222,0.96520484,4.48175669,8.54895687
2016-02-08 18:33:29.156222,0.94366944,4.48893547,8.56570721
2016-02-08 18:33:29.406222,0.92931247,4.49372101,8.56809998
2016-02-08 18:33:29.656222,0.9101699,4.51794815,8.54895687
2016-02-08 18:33:29.906222,0.92452687,4.51555538,8.55374241
2016-02-08 18:33:30.156222,0.93888378,4.50598431,8.55852795
2016-02-08 18:33:30.406222,0.91256273,4.51794815,8.54895687
2016-02-08 18:33:30.656222,0.93649095,4.49850655,8.53699303
2016-02-08 18:33:30.906222,0.9269197,4.49611378,8.52024365
2016-02-08 18:33:31.156222,0.94366944,4.50119829,8.52502918
2016-02-08 18:33:31.406222,0.93649095,4.47936392,8.52981472
2016-02-08 18:33:31.656222,0.9101699,4.48175669,8.55134964
2016-02-08 18:33:31.906222,0.91974121,4.47457838,8.56092167
2016-02-08 18:33:32.156222,0.90777707,4.46500683,8.57288551
2016-02-08 18:33:32.406222,0.90777707,4.47218561,8.56570721
2016-02-08 18:33:32.656222,0.92213404,4.49372101,8.57049274
2016-02-08 18:33:32.906222,0.9101699,4.49132824,8.56809998
2016-02-08 18:33:33.156222,0.92452687,4.50598431,8.59920597
2016-02-08 18:33:33.406222,0.93409813,4.49132824,8.5968132
2016-02-08 18:33:33.656222,0.95324069,4.52512693,8.59442043
2016-02-08 18:33:33.906222,0.92931247,4.50359154,8.61117077
2016-02-08 18:33:34.156222,0.9269197,4.51794815,8.62552738
2016-02-08 18:33:34.406222,0.9269197,4.52034092,8.61595631
2016-02-08 18:33:34.656222,0.92931247,4.50359154,8.60159874
2016-02-08 18:33:34.906222,0.91974121,4.47457838,8.60399246
2016-02-08 18:33:35.156222,0.95084792,4.48175669,8.61595631
2016-02-08 18:33:35.406222,0.96759766,4.47457838,8.60638523
2016-02-08 18:33:35.656222,0.98195458,4.46979284,8.5896349
2016-02-08 18:33:35.906222,0.98674023,4.48654223,8.56331444
2016-02-08 18:33:36.156222,1.01545405,4.46261406,8.55852795
2016-02-08 18:33:36.406222,1.0010972,4.47697115,8.52742195
2016-02-08 18:33:36.656222,0.98913306,4.47218561,8.52263641
2016-02-08 18:33:36.906222,1.02741826,4.48175669,8.52263641
2016-02-08 18:33:37.156222,1.02981103,4.48414946,8.49392223
2016-02-08 18:33:37.406222,1.03938234,4.50359154,8.47717285
2016-02-08 18:33:37.656222,1.02023971,4.48175669,8.46012402
2016-02-08 18:33:37.906222,1.04895365,4.48893547,8.46251679
2016-02-08 18:33:38.156222,1.044168,4.48654223,8.45294476
2016-02-08 18:33:38.406222,1.07766748,4.48654223,8.41944599
2016-02-08 18:33:38.656222,1.07048905,4.47936392,8.41944599
2016-02-08 18:33:38.906222,1.02741826,4.48654223,8.40269566
2016-02-08 18:33:39.156222,1.05373931,4.48893547,8.40508843
2016-02-08 18:33:39.406222,1.03938234,4.48893547,8.42183876
2016-02-08 18:33:39.656222,1.03938234,4.48654223,8.43380261
2016-02-08 18:33:39.906222,1.04895365,4.48175669,8.44815922
2016-02-08 18:33:40.156222,1.04177511,4.45065022,8.44098091
2016-02-08 18:33:40.406222,1.03459668,4.46500683,8.47238636
2016-02-08 18:33:40.656222,1.01306129,4.46979284,8.49392223
2016-02-08 18:33:40.906222,1.00588286,4.43390036,8.54417133
2016-02-08 18:33:41.156222,1.01066852,4.42193604,8.58484936
2016-02-08 18:33:41.406222,0.97956175,4.41954327,8.62792015
2016-02-08 18:33:41.656222,0.96999049,4.41954327,8.6590271
2016-02-08 18:33:41.906222,0.98913306,4.41954327,8.66859818
2016-02-08 18:33:42.156222,0.96041918,4.39322233,8.69252682
2016-02-08 18:33:42.406222,0.96041918,4.39322233,8.72363281
2016-02-08 18:33:42.656222,0.9484551,4.38125849,8.78345394
2016-02-08 18:33:42.906222,0.9317053,4.38125849,8.79541779
2016-02-08 18:33:43.156222,0.93649095,4.39082956,8.85284519
2016-02-08 18:33:43.406222,0.90777707,4.39082956,8.85045242
2016-02-08 18:33:43.656222,0.91256273,4.35972309,8.8719883
2016-02-08 18:33:43.906222,0.91734839,4.35732985,8.89591599
2016-02-08 18:33:44.156222,0.91734839,4.36929417,8.86720276
2016-02-08 18:33:44.406222,0.92931247,4.3669014,8.88155937
2016-02-08 18:33:44.656222,0.91974121,4.35254431,8.8791666
2016-02-08 18:33:44.906222,0.9269197,4.345366,8.89113045
2016-02-08 18:33:45.156222,0.93409813,4.34775877,8.90070248
2016-02-08 18:33:45.406222,0.96999049,4.35254431,8.87677383
2016-02-08 18:33:45.656222,0.96759766,4.33579445,8.85045242
2016-02-08 18:33:45.906222,0.96999049,4.36211586,8.85284519
2016-02-08 18:33:46.156222,0.97477615,4.34775877,8.83131027
2016-02-08 18:33:46.406222,0.9484551,4.35254431,8.85284519
2016-02-08 18:33:46.656222,0.97716892,4.35732985,8.85523796
2016-02-08 18:33:46.906222,0.94127661,4.36211586,8.85763168
2016-02-08 18:33:47.156222,0.93649095,4.35015154,8.85763168
2016-02-08 18:33:47.406222,0.91974121,4.34775877,8.86720276
2016-02-08 18:33:47.656222,0.91256273,4.36450863,8.86480999
2016-02-08 18:33:47.906222,0.90777707,4.37647247,8.84805965
2016-02-08 18:33:48.156222,0.88145602,4.3956151,8.84805965
2016-02-08 18:33:48.406222,0.86949194,4.39322233,8.83848858
2016-02-08 18:33:48.656222,0.89820582,4.38604403,8.81456089
2016-02-08 18:33:48.906222,0.87427759,4.39800787,8.79781056
2016-02-08 18:33:49.156222,0.85992062,4.38365126,8.76909638
2016-02-08 18:33:49.406222,0.86470628,4.38125849,8.76670361
2016-02-08 18:33:49.656222,0.88384885,4.38125849,8.75234699
2016-02-08 18:33:49.906222,0.85752779,4.3956151,8.73559761
2016-02-08 18:33:50.156222,0.87427759,4.41236496,8.71645451
2016-02-08 18:33:50.406222,0.87906319,4.40279388,8.72124004
2016-02-08 18:33:50.656222,0.86231345,4.40518665,8.71166897
2016-02-08 18:33:50.906222,0.89102733,4.41954327,8.69013405
2016-02-08 18:33:51.156222,0.88384885,4.40279388,8.68774128
2016-02-08 18:33:51.406222,0.89102733,4.42193604,8.66859818
2016-02-08 18:33:51.656222,0.87188476,4.40997219,8.66141987
2016-02-08 18:33:51.906222,0.85513496,4.39322233,8.69970512
2016-02-08 18:33:52.156222,0.8527422,4.41954327,8.71166897
2016-02-08 18:33:52.406222,0.87427759,4.42193604,8.74995422
2016-02-08 18:33:52.656222,0.85034937,4.41475773,8.75713253
2016-02-08 18:33:52.906222,0.84795654,4.42672205,8.77388287
2016-02-08 18:33:53.156222,0.87188476,4.41954327,8.81216717
2016-02-08 18:33:53.406222,0.86231345,4.41475773,8.81456089
2016-02-08 18:33:53.656222,0.87188476,4.4171505,8.86480999
2016-02-08 18:33:53.906222,0.8527422,4.40279388,8.8719883
2016-02-08 18:33:54.156222,0.86470628,4.42193604,8.91984463
2016-02-08 18:33:54.406222,0.86949194,4.40997219,8.93420124
2016-02-08 18:33:54.656222,0.8527422,4.42672205,8.96052265
2016-02-08 18:33:54.906222,0.84795654,4.43150759,8.97009373
2016-02-08 18:33:55.156222,0.85034937,4.45304298,8.98684406
2016-02-08 18:33:55.406222,0.84317088,4.45543575,8.96291542
2016-02-08 18:33:55.656222,0.82402831,4.45065022,8.94616604
2016-02-08 18:33:55.906222,0.80488575,4.46261406,8.94137955
2016-02-08 18:33:56.156222,0.77138621,4.46740007,8.88395214
2016-02-08 18:33:56.406222,0.75702924,4.46022129,8.86959553
2016-02-08 18:33:56.656222,0.73310101,4.45543575,8.81934643
2016-02-08 18:33:56.906222,0.72592259,4.46261406,8.79541779
2016-02-08 18:33:57.156222,0.74267232,4.47218561,8.77148914
2016-02-08 18:33:57.406222,0.73070824,4.47936392,8.76191807
2016-02-08 18:33:57.656222,0.7187441,4.47457838,8.69491959
2016-02-08 18:33:57.906222,0.73788667,4.49611378,8.68295479
2016-02-08 18:33:58.156222,0.7402795,4.51555538,8.66859818
2016-02-08 18:33:58.406222,0.73310101,4.52512693,8.64227676
2016-02-08 18:33:58.656222,0.72113693,4.52034092,8.62552738
2016-02-08 18:33:58.906222,0.72831541,4.54187632,8.63031292
2016-02-08 18:33:59.156222,0.71156561,4.52991247,8.608778
2016-02-08 18:33:59.406222,0.68255264,4.51555538,8.608778
2016-02-08 18:33:59.656222,0.68255264,4.50119829,8.60399246
2016-02-08 18:33:59.906222,0.65623158,4.49132824,8.59202766
2016-02-08 18:34:00.156222,0.68015981,4.50359154,8.57767105
2016-02-08 18:34:00.406222,0.67298138,4.47936392,8.56570721
2016-02-08 18:34:00.656222,0.68255264,4.46740007,8.5465641
2016-02-08 18:34:00.906222,0.68524456,4.46979284,8.5465641
2016-02-08 18:34:01.156222,0.70438719,4.46979284,8.54417133
2016-02-08 18:34:01.406222,0.68763739,4.45304298,8.5465641
2016-02-08 18:34:01.656222,0.70199436,4.46500683,8.54417133
2016-02-08 18:34:01.906222,0.71156561,4.45304298,8.5465641
2016-02-08 18:34:02.156222,0.71635127,4.45304298,8.52981472
2016-02-08 18:34:02.406222,0.7187441,4.46500683,8.52263641
2016-02-08 18:34:02.656222,0.71395844,4.46022129,8.51785088
2016-02-08 18:34:02.906222,0.75942206,4.46740007,8.52263641
2016-02-08 18:34:03.156222,0.77138621,4.45304298,8.5393858
2016-02-08 18:34:03.406222,0.79531443,4.43390036,8.52981472
2016-02-08 18:34:03.656222,0.80488575,4.43868589,8.52024365
2016-02-08 18:34:03.906222,0.80967134,4.44347143,8.55613518
2016-02-08 18:34:04.156222,0.83838522,4.43629313,8.52981472
2016-02-08 18:34:04.406222,0.8359924,4.43868589,8.5465641
2016-02-08 18:34:04.656222,0.83359957,4.45304298,8.58724213
2016-02-08 18:34:04.906222,0.82402831,4.43390036,8.58006382
2016-02-08 18:34:05.156222,0.82881397,4.43150759,8.61834908
2016-02-08 18:34:05.406222,0.814457,4.43868589,8.62074184
2016-02-08 18:34:05.656222,0.81924266,4.45065022,8.65184879
2016-02-08 18:34:05.906222,0.78574312,4.44586468,8.64706326
2016-02-08 18:34:06.156222,0.78095752,4.42672205,8.66859818
2016-02-08 18:34:06.406222,0.76181489,4.42911482,8.68056202
2016-02-08 18:34:06.656222,0.75224364,4.4171505,8.71406174
2016-02-08 18:34:06.906222,0.72352976,4.4171505,8.7092762
2016-02-08 18:34:07.156222,0.70917279,4.4171505,8.72602558
2016-02-08 18:34:07.406222,0.71156561,4.40518665,8.71884728
2016-02-08 18:34:07.656222,0.70678002,4.40518665,8.71884728
2016-02-08 18:34:07.906222,0.73310101,4.40518665,8.71166897
2016-02-08 18:34:08.156222,0.7187441,4.4171505,8.69731236
2016-02-08 18:34:08.406222,0.74506515,4.41475773,8.68056202
2016-02-08 18:34:08.656222,0.76181489,4.3956151,8.68295479
2016-02-08 18:34:08.906222,0.76181489,4.40040064,8.68774128
2016-02-08 18:34:09.156222,0.79052877,4.38365126,8.67099094
2016-02-08 18:34:09.406222,0.7929216,4.40279388,8.66859818
2016-02-08 18:34:09.656222,0.79052877,4.38125849,8.63509846
2016-02-08 18:34:09.906222,0.814457,4.39082956,8.64945602
2016-02-08 18:34:10.156222,0.80249292,4.40997219,8.63749123
2016-02-08 18:34:10.406222,0.82402831,4.3956151,8.66381264
2016-02-08 18:34:10.656222,0.84795654,4.40997219,8.64945602
2016-02-08 18:34:10.906222,0.85513496,4.41475773,8.67338371
2016-02-08 18:34:11.156222,0.85752779,4.41475773,8.69013405
2016-02-08 18:34:11.406222,0.87906319,4.42193604,8.72602558
2016-02-08 18:34:11.656222,0.87427759,4.3956151,8.74756146
2016-02-08 18:34:11.906222,0.87427759,4.39322233,8.78345394
2016-02-08 18:34:12.156222,0.88624167,4.38365126,8.81695366
2016-02-08 18:34:12.406222,0.89820582,4.35493708,8.80259609
2016-02-08 18:34:12.656222,0.89342016,4.345366,8.8217392
2016-02-08 18:34:12.906222,0.87906319,4.345366,8.85284519
2016-02-08 18:34:13.156222,0.87667042,4.33818722,8.86959553
2016-02-08 18:34:13.406222,0.86470628,4.32143784,8.85763168
2016-02-08 18:34:13.656222,0.87906319,4.30708075,8.87438107
2016-02-08 18:34:13.906222,0.88384885,4.31186628,8.8791666
2016-02-08 18:34:14.156222,0.86949194,4.29511643,8.88155937
2016-02-08 18:34:14.406222,0.85992062,4.28075981,8.8719883
2016-02-08 18:34:14.656222,0.87188476,4.29033089,8.87677383
2016-02-08 18:34:14.906222,0.84077805,4.29033089,8.86959553
2016-02-08 18:34:15.156222,0.82642114,4.26879549,8.86720276
2016-02-08 18:34:15.406222,0.80488575,4.26879549,8.88634491
2016-02-08 18:34:15.656222,0.81684983,4.30708075,8.86002445
2016-02-08 18:34:15.906222,0.82163549,4.31665182,8.84566689
2016-02-08 18:34:16.156222,0.80249292,4.29750967,8.8289175
2016-02-08 18:34:16.406222,0.814457,4.33100891,8.80020332
2016-02-08 18:34:16.656222,0.80727851,4.32383061,8.78823948
2016-02-08 18:34:16.906222,0.82163549,4.32861614,8.76670361
2016-02-08 18:34:17.156222,0.84317088,4.29750967,8.76431084
2016-02-08 18:34:17.406222,0.82402831,4.31665182,8.74995422
2016-02-08 18:34:17.656222,0.81924266,4.32861614,8.72363281
2016-02-08 18:34:17.906222,0.82163549,4.34058046,8.72363281
2016-02-08 18:34:18.156222,0.7929216,4.31425905,8.70209789
2016-02-08 18:34:18.406222,0.82642114,4.32861614,8.67099094
2016-02-08 18:34:18.656222,0.81924266,4.33579445,8.66141987
2016-02-08 18:34:18.906222,0.80967134,4.33818722,8.66620541
2016-02-08 18:34:19.156222,0.80967134,4.33340168,8.64706326
2016-02-08 18:34:19.406222,0.79052877,4.34058046,8.65663433
2016-02-08 18:34:19.656222,0.78813595,4.34297323,8.66141987
2016-02-08 18:34:19.906222,0.81684983,4.35972309,8.64706326
2016-02-08 18:34:20.156222,0.80727851,4.345366,8.64227676
2016-02-08 18:34:20.406222,0.82163549,4.33340168,8.61595631
2016-02-08 18:34:20.656222,0.79770726,4.34297323,8.639884
2016-02-08 18:34:20.906222,0.82163549,4.35732985,8.62313461
2016-02-08 18:34:21.156222,0.81684983,4.36211586,8.63031292
2016-02-08 18:34:21.406222,0.81206417,4.33340168,8.64227676
2016-02-08 18:34:21.656222,0.81684983,4.33340168,8.64466953
2016-02-08 18:34:21.906222,0.82163549,4.33100891,8.65663433
2016-02-08 18:34:22.156222,0.82642114,4.35015154,8.66381264
2016-02-08 18:34:22.406222,0.83120674,4.345366,8.67099094
2016-02-08 18:34:22.656222,0.84795654,4.37168694,8.67338371
2016-02-08 18:34:22.906222,0.84795654,4.33340168,8.7092762
2016-02-08 18:34:23.156222,0.84317088,4.34058046,8.74277592
2016-02-08 18:34:23.406222,0.86470628,4.33340168,8.77388287
2016-02-08 18:34:23.656222,0.84795654,4.30947352,8.82652473
2016-02-08 18:34:23.906222,0.85752779,4.29033089,8.84327412
2016-02-08 18:34:24.156222,0.84317088,4.26879549,8.85045242
2016-02-08 18:34:24.406222,0.84556371,4.26640272,8.86480999
2016-02-08 18:34:24.656222,0.8527422,4.26400995,8.8719883
2016-02-08 18:34:24.906222,0.85513496,4.26161718,8.89591599
2016-02-08 18:34:25.156222,0.86949194,4.25443888,8.89352322
2016-02-08 18:34:25.406222,0.89102733,4.28315258,8.90309525
2016-02-08 18:34:25.656222,0.89102733,4.23768902,8.89352322
2016-02-08 18:34:25.906222,0.91734839,4.25204563,8.91027355
2016-02-08 18:34:26.156222,0.94606227,4.27118826,8.89591599
2016-02-08 18:34:26.406222,0.93888378,4.25443888,8.87677383
2016-02-08 18:34:26.656222,0.96520484,4.25922442,8.86480999
2016-02-08 18:34:26.906222,0.96520484,4.27118826,8.85763168
2016-02-08 18:34:27.156222,0.95324069,4.28554535,8.84566689
2016-02-08 18:34:27.406222,0.9484551,4.25443888,8.8217392
2016-02-08 18:34:27.656222,0.93888378,4.26400995,8.8097744
2016-02-08 18:34:27.906222,0.94366944,4.25443888,8.79781056
2016-02-08 18:34:28.156222,0.92452687,4.24726009,8.8097744
2016-02-08 18:34:28.406222,0.91495556,4.24486733,8.77148914
2016-02-08 18:34:28.656222,0.92452687,4.24726009,8.77148914
2016-02-08 18:34:28.906222,0.9317053,4.24486733,8.7595253
2016-02-08 18:34:29.156222,0.9101699,4.24965286,8.74756146
2016-02-08 18:34:29.406222,0.88145602,4.23529625,8.73320484
2016-02-08 18:34:29.656222,0.89102733,4.26400995,8.72841835
2016-02-08 18:34:29.906222,0.85752779,4.24726009,8.73081207
2016-02-08 18:34:30.156222,0.85752779,4.24965286,8.70449066
2016-02-08 18:34:30.406222,0.89342016,4.24965286,8.68774128
2016-02-08 18:34:30.656222,0.88384885,4.25922442,8.65184879
2016-02-08 18:34:30.906222,0.89342016,4.23529625,8.64706326
2016-02-08 18:34:31.156222,0.89102733,4.20658207,8.64945602
2016-02-08 18:34:31.406222,0.92931247,4.21376085,8.65424156
2016-02-08 18:34:31.656222,0.95084792,4.22811747,8.639884
2016-02-08 18:34:31.906222,0.96759766,4.23290348,8.64227676
2016-02-08 18:34:32.156222,0.96281201,4.23051024,8.65424156
2016-02-08 18:34:32.406222,0.98195458,4.24008179,8.639884
2016-02-08 18:34:32.656222,0.97716892,4.22811747,8.6590271
2016-02-08 18:34:32.906222,0.98195458,4.23290348,8.65663433
2016-02-08 18:34:33.156222,0.99391872,4.24486733,8.65424156
2016-02-08 18:34:33.406222,0.98913306,4.2257247,8.67816925
2016-02-08 18:34:33.656222,0.97716892,4.21615362,8.68056202
2016-02-08 18:34:33.906222,1.02023971,4.21615362,8.67816925
2016-02-08 18:34:34.156222,1.03220391,4.22093916,8.68534756
2016-02-08 18:34:34.406222,1.01066852,4.20897484,8.69970512
2016-02-08 18:34:34.656222,1.00588286,4.20179653,8.70449066
2016-02-08 18:34:34.906222,1.00827563,4.21136808,8.71166897
2016-02-08 18:34:35.156222,1.01545405,4.22333193,8.72363281
2016-02-08 18:34:35.406222,1.02023971,4.20658207,8.7595253
2016-02-08 18:34:35.656222,1.00348997,4.21136808,8.73559761
2016-02-08 18:34:35.906222,0.99870437,4.20897484,8.77148914
2016-02-08 18:34:36.156222,1.0010972,4.19222546,8.76191807
2016-02-08 18:34:36.406222,0.98674023,4.19461823,8.78584671
2016-02-08 18:34:36.656222,0.97956175,4.18983269,8.78345394
2016-02-08 18:34:36.906222,0.9843474,4.18983269,8.76670361
2016-02-08 18:34:37.156222,0.9843474,4.18983269,8.76909638
2016-02-08 18:34:37.406222,1.00348997,4.19940376,8.76431084
2016-02-08 18:34:37.656222,0.9843474,4.19222546,8.77148914
2016-02-08 18:34:37.906222,0.97956175,4.17786837,8.76670361
2016-02-08 18:34:38.156222,0.98913306,4.17308283,8.7595253
2016-02-08 18:34:38.406222,0.99870437,4.18983269,8.75473976
2016-02-08 18:34:38.656222,1.01066852,4.18743944,8.73799038
2016-02-08 18:34:38.906222,1.00827563,4.17786837,8.71645451
2016-02-08 18:34:39.156222,1.0226326,4.1754756,8.72363281
2016-02-08 18:34:39.406222,0.97716892,4.19461823,8.70449066
2016-02-08 18:34:39.656222,0.96281201,4.21136808,8.69491959
2016-02-08 18:34:39.906222,0.95084792,4.21136808,8.67099094
2016-02-08 18:34:40.156222,0.92931247,4.21854639,8.6590271
2016-02-08 18:34:40.406222,0.91256273,4.2257247,8.64466953
2016-02-08 18:34:40.656222,0.89342016,4.22333193,8.64706326
2016-02-08 18:34:40.906222,0.87906319,4.23529625,8.63031292
2016-02-08 18:34:41.156222,0.86949194,4.23529625,8.64945602
2016-02-08 18:34:41.406222,0.87427759,4.22811747,8.64706326
2016-02-08 18:34:41.656222,0.86709911,4.2257247,8.65184879
2016-02-08 18:34:41.906222,0.86231345,4.23529625,8.65424156
2016-02-08 18:34:42.156222,0.87188476,4.22333193,8.66859818
2016-02-08 18:34:42.406222,0.90538424,4.24247456,8.67338371
2016-02-08 18:34:42.656222,0.89581299,4.22333193,8.69731236
2016-02-08 18:34:42.906222,0.93649095,4.20897484,8.72841835
2016-02-08 18:34:43.156222,0.93409813,4.2257247,8.73320484
2016-02-08 18:34:43.406222,0.94366944,4.22093916,8.7595253
2016-02-08 18:34:43.656222,0.97716892,4.23290348,8.78106117
2016-02-08 18:34:43.906222,1.0010972,4.19940376,8.77388287
2016-02-08 18:34:44.156222,1.01306129,4.19701099,8.80259609
2016-02-08 18:34:44.406222,1.02023971,4.19461823,8.81456089
2016-02-08 18:34:44.656222,1.02981103,4.18026114,8.80738163
2016-02-08 18:34:44.906222,1.05134642,4.18026114,8.81216717
2016-02-08 18:34:45.156222,1.05373931,4.18504667,8.79781056
2016-02-08 18:34:45.406222,1.04177511,4.19222546,8.82413197
2016-02-08 18:34:45.656222,1.04656076,4.19461823,8.83609581
2016-02-08 18:34:45.906222,1.04895365,4.1826539,8.80738163
2016-02-08 18:34:46.156222,1.04177511,4.18983269,8.83370304
2016-02-08 18:34:46.406222,1.04177511,4.17308283,8.8289175
2016-02-08 18:34:46.656222,1.02023971,4.15154743,8.83131027
2016-02-08 18:34:46.906222,1.02981103,4.15872574,8.84566689
2016-02-08 18:34:47.156222,1.00827563,4.14915466,8.86002445
2016-02-08 18:34:47.406222,0.99152589,4.15872574,8.88634491
2016-02-08 18:34:47.656222,0.97477615,4.15872574,8.86241722
2016-02-08 18:34:47.906222,0.95802635,4.13719034,8.86480999
2016-02-08 18:34:48.156222,0.94366944,4.13719034,8.8719883
2016-02-08 18:34:48.406222,0.91256273,4.14197588,8.85284519
2016-02-08 18:34:48.656222,0.89342016,4.12522602,8.86959553
2016-02-08 18:34:48.906222,0.90538424,4.14676142,8.85523796
2016-02-08 18:34:49.156222,0.8886345,4.1324048,8.84566689
2016-02-08 18:34:49.406222,0.88145602,4.14676142,8.86002445
2016-02-08 18:34:49.656222,0.88624167,4.13001204,8.84805965
2016-02-08 18:34:49.906222,0.87906319,4.14197588,8.86480999
2016-02-08 18:34:50.156222,0.88145602,4.14676142,8.86959553
2016-02-08 18:34:50.406222,0.87188476,4.14197588,8.86959553
2016-02-08 18:34:50.656222,0.88384885,4.11086941,8.90070248
2016-02-08 18:34:50.906222,0.86949194,4.1324048,8.91505909
2016-02-08 18:34:51.156222,0.86949194,4.14676142,8.9222374
2016-02-08 18:34:51.406222,0.85513496,4.1324048,8.96291542
2016-02-08 18:34:51.656222,0.85034937,4.11804771,8.96291542
2016-02-08 18:34:51.906222,0.86470628,4.10369062,8.9796648
2016-02-08 18:34:52.156222,0.89102733,4.12044048,8.99641514
2016-02-08 18:34:52.406222,0.91256273,4.1324048,9.00359345
2016-02-08 18:34:52.656222,0.91256273,4.11565495,8.97727203
2016-02-08 18:34:52.906222,0.90777707,4.1324048,8.98205757
2016-02-08 18:34:53.156222,0.92213404,4.13001204,8.98684406
2016-02-08 18:34:53.406222,0.93409813,4.12283325,8.97487927
2016-02-08 18:34:53.656222,0.91974121,4.12283325,8.96770096
2016-02-08 18:34:53.906222,0.91495556,4.11804771,8.94855881
2016-02-08 18:34:54.156222,0.9101699,4.11086941,8.93898678
2016-02-08 18:34:54.406222,0.91256273,4.12283325,8.92463017
2016-02-08 18:34:54.656222,0.91495556,4.10847664,8.91266632
2016-02-08 18:34:54.906222,0.91734839,4.12283325,8.90309525
2016-02-08 18:34:55.156222,0.91734839,4.11804771,8.89352322
2016-02-08 18:34:55.406222,0.93649095,4.14676142,8.85523796
2016-02-08 18:34:55.656222,0.96520484,4.13958311,8.85045242
2016-02-08 18:34:55.906222,0.9843474,4.14436865,8.85763168
2016-02-08 18:34:56.156222,0.97477615,4.13958311,8.85523796
2016-02-08 18:34:56.406222,0.97956175,4.16829681,8.85523796
2016-02-08 18:34:56.656222,0.97956175,4.16351128,8.86241722
2016-02-08 18:34:56.906222,0.97477615,4.14915466,8.87438107
2016-02-08 18:34:57.156222,0.97238332,4.14676142,8.90309525
2016-02-08 18:34:57.406222,0.98913306,4.1324048,8.90070248
2016-02-08 18:34:57.656222,0.9843474,4.1539402,8.9222374
2016-02-08 18:34:57.906222,0.97956175,4.14676142,8.93420124
2016-02-08 18:34:58.156222,0.98674023,4.11086941,8.94377327
2016-02-08 18:34:58.406222,0.97477615,4.11326218,8.93659401
2016-02-08 18:34:58.656222,1.00827563,4.09172678,8.92463017
2016-02-08 18:34:58.906222,1.03220391,4.08694124,8.93180847
2016-02-08 18:34:59.156222,1.06091774,4.07019138,8.91266632
2016-02-08 18:34:59.406222,1.09441721,4.05822706,8.91027355
2016-02-08 18:34:59.656222,1.12552393,4.04387045,8.90548801
2016-02-08 18:34:59.906222,1.15184498,4.06301308,8.89113045
2016-02-08 18:35:00.156222,1.17816603,4.07736969,8.86480999
2016-02-08 18:35:00.406222,1.21645117,4.05822706,8.85763168
2016-02-08 18:35:00.656222,1.22362971,4.05104876,8.83370304
2016-02-08 18:35:00.906222,1.24277222,4.06540585,8.81934643
2016-02-08 18:35:01.156222,1.26460671,4.06061983,8.80498886
2016-02-08 18:35:01.406222,1.27178526,4.02712059,8.78823948
2016-02-08 18:35:01.656222,1.26939237,4.02472782,8.78345394
2016-02-08 18:35:01.906222,1.23080814,4.05104876,8.79541779
2016-02-08 18:35:02.156222,1.17816603,4.01994181,8.80738163
2016-02-08 18:35:02.406222,1.15184498,4.04147768,8.79063225
2016-02-08 18:35:02.656222,1.07048905,4.02472782,8.78106117
2016-02-08 18:35:02.906222,0.99870437,4.04626322,8.77627564
2016-02-08 18:35:03.156222,0.94127661,4.05104876,8.78345394
2016-02-08 18:35:03.406222,0.85992062,4.07019138,8.73799038
2016-02-08 18:35:03.656222,0.79531443,4.05822706,8.73081207
2016-02-08 18:35:03.906222,0.70678002,4.07258415,8.7595253
2016-02-08 18:35:04.156222,0.59880388,4.08215523,8.76909638
2016-02-08 18:35:04.406222,0.51266223,4.08454847,8.79302502
2016-02-08 18:35:04.656222,0.38584265,4.10369062,8.77388287
2016-02-08 18:35:04.906222,0.3188436,4.1539402,8.75234699
2016-02-08 18:35:05.156222,0.23988047,4.19461823,8.73559761
2016-02-08 18:35:05.406222,0.18005991,4.21615362,8.70209789
2016-02-08 18:35:05.656222,0.15613169,4.20658207,8.6590271
2016-02-08 18:35:05.906222,0.15134603,4.21136808,8.64227676
2016-02-08 18:35:06.156222,0.10797612,4.21615362,8.5968132
2016-02-08 18:35:06.406222,0.11036895,4.20658207,8.56331444
2016-02-08 18:35:06.656222,0.11754742,4.23290348,8.54177856
2016-02-08 18:35:06.906222,0.10319047,4.23768902,8.51067162
2016-02-08 18:35:07.156222,0.13938192,4.26879549,8.46251679
2016-02-08 18:35:07.406222,0.1680958,4.28315258,8.47477913
2016-02-08 18:35:07.656222,0.21116661,4.31425905,8.44815922
2016-02-08 18:35:07.906222,0.26141587,4.33340168,8.43380261
2016-02-08 18:35:08.156222,0.30448669,4.37647247,8.42901707
2016-02-08 18:35:08.406222,0.3379862,4.4171505,8.43380261
2016-02-08 18:35:08.656222,0.39780676,4.45782852,8.40508843
2016-02-08 18:35:08.906222,0.41216371,4.44825745,8.43140984
2016-02-08 18:35:09.156222,0.44566321,4.46261406,8.44815922
2016-02-08 18:35:09.406222,0.48873404,4.48175669,8.44815922
2016-02-08 18:35:09.656222,0.48634121,4.46500683,8.44337368
2016-02-08 18:35:09.906222,0.50787664,4.44586468,8.46012402
2016-02-08 18:35:10.156222,0.5102694,4.43868589,8.46999359
2016-02-08 18:35:10.406222,0.55094743,4.45065022,8.50588608
2016-02-08 18:35:10.656222,0.57487565,4.43868589,8.48674393
2016-02-08 18:35:10.906222,0.61316079,4.43390036,8.52742195
2016-02-08 18:35:11.156222,0.61316079,4.43390036,8.53460026
2016-02-08 18:35:11.406222,0.63469619,4.42911482,8.5465641
2016-02-08 18:35:11.656222,0.63948184,4.41954327,8.57288551
2016-02-08 18:35:11.906222,0.64187467,4.41236496,8.58006382
2016-02-08 18:35:12.156222,0.62512493,4.40279388,8.608778
2016-02-08 18:35:12.406222,0.63469619,4.3669014,8.61117077
2016-02-08 18:35:12.656222,0.61076796,4.35493708,8.62313461
2016-02-08 18:35:12.906222,0.60119671,4.33340168,8.62074184
2016-02-08 18:35:13.156222,0.57248282,4.34297323,8.60399246
2016-02-08 18:35:13.406222,0.57487565,4.31665182,8.60399246
2016-02-08 18:35:13.656222,0.57726848,4.29750967,8.58006382
2016-02-08 18:35:13.906222,0.58205408,4.27836704,8.5896349
2016-02-08 18:35:14.156222,0.57966131,4.27597427,8.55613518
2016-02-08 18:35:14.406222,0.57966131,4.28075981,8.51306438
2016-02-08 18:35:14.656222,0.55573309,4.27118826,8.496315
2016-02-08 18:35:14.906222,0.57726848,4.26161718,8.46012402
2016-02-08 18:35:15.156222,0.57487565,4.27118826,8.40987396
2016-02-08 18:35:15.406222,0.58683974,4.27358103,8.40030289
2016-02-08 18:35:15.656222,0.56530434,4.26400995,8.43858814
2016-02-08 18:35:15.906222,0.47198427,4.26161718,8.56331444
2016-02-08 18:35:16.156222,0.3595216,4.24726009,8.63749123
2016-02-08 18:35:16.406222,0.17766708,4.25204563,8.72602558
2016-02-08 18:35:16.656222,0.01465604,4.26161718,8.78584671
2016-02-08 18:35:16.906222,-0.1265205,4.32861614,8.84805965
2016-02-08 18:35:17.156222,-0.241376,4.36929417,8.86959553
2016-02-08 18:35:17.406222,-0.3418745,4.38125849,8.90309525
2016-02-08 18:35:17.656222,-0.4184449,4.40997219,8.90309525
2016-02-08 18:35:17.906222,-0.4833502,4.40757942,8.93659401
2016-02-08 18:35:18.156222,-0.5216354,4.41954327,8.95334435
2016-02-08 18:35:18.406222,-0.5862415,4.40997219,8.94855881
2016-02-08 18:35:18.656222,-0.634098,4.40040064,8.9796648
2016-02-08 18:35:18.906222,-0.6699904,4.39800787,8.95812988
2016-02-08 18:35:19.156222,-0.6891329,4.41236496,8.93659401
2016-02-08 18:35:19.406222,-0.6915258,4.42672205,8.91505909
2016-02-08 18:35:19.656222,-0.6675975,4.45065022,8.88395214
2016-02-08 18:35:19.906222,-0.6508477,4.46979284,8.84327412
2016-02-08 18:35:20.156222,-0.6269195,4.48654223,8.8289175
2016-02-08 18:35:20.406222,-0.6053841,4.49372101,8.8097744
2016-02-08 18:35:20.656222,-0.5766702,4.51076984,8.80259609
2016-02-08 18:35:20.906222,-0.5599205,4.55623341,8.81456089
2016-02-08 18:35:21.156222,-0.5072784,4.5490551,8.81934643
2016-02-08 18:35:21.406222,-0.4785645,4.5705905,8.81456089
2016-02-08 18:35:21.656222,-0.4016951,4.5993042,8.81934643
2016-02-08 18:35:21.906222,-0.3538387,4.60887575,8.85523796
2016-02-08 18:35:22.156222,-0.3203391,4.61844683,8.84088135
2016-02-08 18:35:22.406222,-0.2605186,4.61366129,8.83609581
2016-02-08 18:35:22.656222,-0.1935195,4.6280179,8.84566689
2016-02-08 18:35:22.906222,-0.1313061,4.61366129,8.84805965
2016-02-08 18:35:23.156222,-0.1073779,4.62323237,8.85763168
2016-02-08 18:35:23.406222,-0.0762712,4.60887575,8.86720276
2016-02-08 18:35:23.656222,-0.0666999,4.6208396,8.85284519
2016-02-08 18:35:23.906222,-0.0284148,4.59212589,8.86002445
2016-02-08 18:35:24.156222,-0.0044865,4.57298327,8.85763168
2016-02-08 18:35:24.406222,-0.0212363,4.5705905,8.83609581
2016-02-08 18:35:24.656222,-0.0308076,4.56341171,8.85045242
2016-02-08 18:35:24.906222,-0.0284148,4.56101894,8.8289175
2016-02-08 18:35:25.156222,-0.0403789,4.53469801,8.82652473
2016-02-08 18:35:25.406222,-0.0212363,4.5275197,8.82413197
2016-02-08 18:35:25.656222,-0.0427717,4.49850655,8.81695366
2016-02-08 18:35:25.906222,-0.0666999,4.5275197,8.81216717
2016-02-08 18:35:26.156222,-0.1097707,4.50359154,8.83609581
2016-02-08 18:35:26.406222,-0.1408774,4.46261406,8.81695366
2016-02-08 18:35:26.656222,-0.1863411,4.45304298,8.8289175
2016-02-08 18:35:26.906222,-0.2294119,4.46022129,8.84088135
2016-02-08 18:35:27.156222,-0.2318047,4.43868589,8.82652473
2016-02-08 18:35:27.406222,-0.2581258,4.4171505,8.8217392
2016-02-08 18:35:27.656222,-0.2892324,4.38365126,8.8217392
2016-02-08 18:35:27.906222,-0.2964109,4.36929417,8.84088135
2016-02-08 18:35:28.156222,-0.3299104,4.37168694,8.85523796
2016-02-08 18:35:28.406222,-0.375374,4.33340168,8.91505909
2016-02-08 18:35:28.656222,-0.4280162,4.35254431,8.93180847
2016-02-08 18:35:28.906222,-0.4833502,4.32622337,8.95095158
2016-02-08 18:35:29.156222,-0.5024927,4.35015154,8.98445129
2016-02-08 18:35:29.406222,-0.5407779,4.31665182,9.02034283
2016-02-08 18:35:29.656222,-0.567099,4.35015154,9.04457092
2016-02-08 18:35:29.906222,-0.5814559,4.34775877,9.07328415
2016-02-08 18:35:30.156222,-0.5910272,4.34058046,9.10678387
2016-02-08 18:35:30.406222,-0.634098,4.37886524,9.10917664
2016-02-08 18:35:30.656222,-0.6245267,4.37647247,9.11396217
2016-02-08 18:35:30.906222,-0.6293123,4.36450863,9.09960556
2016-02-08 18:35:31.156222,-0.6173483,4.35972309,9.10199833
2016-02-08 18:35:31.406222,-0.6005985,4.36929417,9.07806969
2016-02-08 18:35:31.656222,-0.6053841,4.35972309,9.054142
2016-02-08 18:35:31.906222,-0.5742775,4.3669014,9.02752209
2016-02-08 18:35:32.156222,-0.5335994,4.35972309,8.98445129
2016-02-08 18:35:32.406222,-0.512064,4.36929417,8.94377327
2016-02-08 18:35:32.656222,-0.4737789,4.34775877,8.91027355
2016-02-08 18:35:32.906222,-0.4522435,4.38365126,8.89830875
2016-02-08 18:35:33.156222,-0.4328018,4.38604403,8.84805965
2016-02-08 18:35:33.406222,-0.4232305,4.3740797,8.81934643
2016-02-08 18:35:33.656222,-0.3825525,4.40040064,8.78345394
2016-02-08 18:35:33.906222,-0.3442674,4.41475773,8.7595253
2016-02-08 18:35:34.156222,-0.3299104,4.42911482,8.73799038
2016-02-08 18:35:34.406222,-0.2916253,4.46261406,8.69731236
2016-02-08 18:35:34.656222,-0.2605186,4.45065022,8.68056202
2016-02-08 18:35:34.906222,-0.2557329,4.47697115,8.68295479
2016-02-08 18:35:35.156222,-0.2246262,4.45543575,8.67577648
2016-02-08 18:35:35.406222,-0.1935195,4.46261406,8.68056202
2016-02-08 18:35:35.656222,-0.1648057,4.43150759,8.70209789
2016-02-08 18:35:35.906222,-0.1648057,4.45065022,8.72841835
2016-02-08 18:35:36.156222,-0.1384846,4.42672205,8.74277592
2016-02-08 18:35:36.406222,-0.1241277,4.42911482,8.77627564
2016-02-08 18:35:36.656222,-0.1001994,4.3956151,8.80020332
2016-02-08 18:35:36.906222,-0.0738784,4.35493708,8.81216717
2016-02-08 18:35:37.156222,-0.0714856,4.34058046,8.83370304
2016-02-08 18:35:37.406222,-0.0451645,4.32383061,8.84566689
2016-02-08 18:35:37.656222,-0.0379861,4.30708075,8.82652473
2016-02-08 18:35:37.906222,-0.0595215,4.29033089,8.84805965
2016-02-08 18:35:38.156222,-0.0332004,4.27836704,8.86002445
2016-02-08 18:35:38.406222,-0.0427717,4.27358103,8.8289175
2016-02-08 18:35:38.656222,-0.0427717,4.23051024,8.84088135
2016-02-08 18:35:38.906222,-0.052343,4.24726009,8.83848858
2016-02-08 18:35:39.156222,-0.0738784,4.24726009,8.82652473
2016-02-08 18:35:39.406222,-0.1169492,4.26400995,8.81934643
2016-02-08 18:35:39.656222,-0.1097707,4.28554535,8.80259609
2016-02-08 18:35:39.906222,-0.1049851,4.29033089,8.75473976
2016-02-08 18:35:40.156222,-0.1313061,4.30708075,8.71884728
2016-02-08 18:35:40.406222,-0.1241277,4.31186628,8.67099094
2016-02-08 18:35:40.656222,-0.1576272,4.30468798,8.63270569
2016-02-08 18:35:40.906222,-0.2054836,4.28315258,8.62313461
2016-02-08 18:35:41.156222,-0.2198406,4.27358103,8.59920597
2016-02-08 18:35:41.406222,-0.241376,4.22093916,8.59442043
2016-02-08 18:35:41.656222,-0.2940181,4.17786837,8.51785088
2016-02-08 18:35:41.906222,-0.2916253,4.22333193,8.46760082
2016-02-08 18:35:42.156222,-0.3251248,4.23051024,8.40508843
2016-02-08 18:35:42.406222,-0.3514458,4.26161718,8.34526825
2016-02-08 18:35:42.656222,-0.3658028,4.29033089,8.33330441
2016-02-08 18:35:42.906222,-0.3681956,4.32622337,8.32133961
2016-02-08 18:35:43.156222,-0.4088736,4.33340168,8.3141613
2016-02-08 18:35:43.406222,-0.4280162,4.35254431,8.32851791
2016-02-08 18:35:43.656222,-0.4498506,4.35493708,8.34048271
2016-02-08 18:35:43.906222,-0.4713861,4.32143784,8.32612515
2016-02-08 18:35:44.156222,-0.4402794,4.29511643,8.34287548
2016-02-08 18:35:44.406222,-0.445065,4.29033089,8.35483933
2016-02-08 18:35:44.656222,-0.4402794,4.27836704,8.34526825
2016-02-08 18:35:44.906222,-0.430409,4.28554535,8.36201763
2016-02-08 18:35:45.156222,-0.3825525,4.25204563,8.34287548
2016-02-08 18:35:45.406222,-0.3729812,4.24726009,8.32133961
2016-02-08 18:35:45.656222,-0.3705884,4.22333193,8.29501915
2016-02-08 18:35:45.906222,-0.3442674,4.24008179,8.28544712
2016-02-08 18:35:46.156222,-0.3370889,4.21136808,8.23519802
2016-02-08 18:35:46.406222,-0.3059822,4.21854639,8.25194836
2016-02-08 18:35:46.656222,-0.2964109,4.25683165,8.22323418
2016-02-08 18:35:46.906222,-0.3011965,4.23529625,8.19930553
2016-02-08 18:35:47.156222,-0.2916253,4.24247456,8.2136631
2016-02-08 18:35:47.406222,-0.2796611,4.22811747,8.2447691
2016-02-08 18:35:47.656222,-0.2796611,4.25443888,8.24955559
2016-02-08 18:35:47.906222,-0.2796611,4.21136808,8.25673389
2016-02-08 18:35:48.156222,-0.2653042,4.21136808,8.28066158
2016-02-08 18:35:48.406222,-0.2533401,4.21854639,8.28544712
2016-02-08 18:35:48.656222,-0.2365903,4.18026114,8.30937576
2016-02-08 18:35:48.906222,-0.2246262,4.17069006,8.32373238
2016-02-08 18:35:49.156222,-0.2437688,4.16351128,8.36680317
2016-02-08 18:35:49.406222,-0.2389832,4.16111851,8.42423153
2016-02-08 18:35:49.656222,-0.2581258,4.14197588,8.44576645
2016-02-08 18:35:49.906222,-0.282054,4.13479757,8.51785088
2016-02-08 18:35:50.156222,-0.2916253,4.12522602,8.55374241
2016-02-08 18:35:50.406222,-0.2796611,4.08454847,8.55613518
2016-02-08 18:35:50.656222,-0.2892324,4.07258415,8.57527828
2016-02-08 18:35:50.906222,-0.2964109,4.04865599,8.55613518
2016-02-08 18:35:51.156222,-0.3059822,4.03908444,8.55613518
2016-02-08 18:35:51.406222,-0.3227319,4.01754904,8.5393858
2016-02-08 18:35:51.656222,-0.3227319,3.99601388,8.496315
2016-02-08 18:35:51.906222,-0.3418745,3.98883534,8.47238636
2016-02-08 18:35:52.156222,-0.3586243,3.97926402,8.42183876
2016-02-08 18:35:52.406222,-0.3873382,3.98165679,8.38116074
2016-02-08 18:35:52.656222,-0.4375874,3.98165679,8.3141613
2016-02-08 18:35:52.906222,-0.5001,3.97926402,8.28066158
2016-02-08 18:35:53.156222,-0.5790631,3.96729994,8.24237633
2016-02-08 18:35:53.406222,-0.6149554,3.96490717,8.2016983
2016-02-08 18:35:53.656222,-0.7178468,3.95533586,8.16102028
2016-02-08 18:35:53.906222,-0.8015956,3.95533586,8.14187813
2016-02-08 18:35:54.156222,-0.8805587,3.940979,8.10837841
2016-02-08 18:35:54.406222,-0.930808,3.9625144,8.08684349
2016-02-08 18:35:54.656222,-1.0052847,3.95533586,8.08445072
2016-02-08 18:35:54.906222,-1.0603195,3.94815731,8.07487869
2016-02-08 18:35:55.156222,-1.0890334,3.92632294,8.04137993
2016-02-08 18:35:55.406222,-1.1105688,3.92871571,8.05573654
2016-02-08 18:35:55.656222,-1.1177473,3.87128782,8.06770039
2016-02-08 18:35:55.906222,-1.1464611,3.84496689,8.08923626
2016-02-08 18:35:56.156222,-1.1297114,3.77318215,8.12273598
2016-02-08 18:35:56.406222,-1.1033903,3.71814728,8.13948536
2016-02-08 18:35:56.656222,-1.0555339,3.67029095,8.1514492
2016-02-08 18:35:56.906222,-1.0555339,3.63918424,8.163414
2016-02-08 18:35:57.156222,-1.0316057,3.5889349,8.19930553
2016-02-08 18:35:57.406222,-0.9906286,3.53390002,8.21127033
2016-02-08 18:35:57.656222,-1.0076774,3.49800754,8.26630497
2016-02-08 18:35:57.906222,-0.9403793,3.49800754,8.29501915
2016-02-08 18:35:58.156222,-0.930808,3.45732951,8.31894684
2016-02-08 18:35:58.406222,-0.89013,3.42622304,8.3644104
2016-02-08 18:35:58.656222,-0.863809,3.42861581,8.3763752
2016-02-08 18:35:58.906222,-0.8279166,3.39272332,8.43619537
2016-02-08 18:35:59.156222,-0.8398808,3.39033055,8.49152947
2016-02-08 18:35:59.406222,-0.8374879,3.3637104,8.54177856
2016-02-08 18:35:59.656222,-0.8207382,3.33978224,8.61356354
2016-02-08 18:35:59.906222,-0.8327023,3.32063961,8.66859818
2016-02-08 18:36:00.156222,-0.8159525,3.30628276,8.70209789
2016-02-08 18:36:00.406222,-0.8159525,3.27996159,8.75234699
2016-02-08 18:36:00.656222,-0.8087741,3.23449802,8.80498886
2016-02-08 18:36:00.906222,-0.7920243,3.21056986,8.85763168
2016-02-08 18:36:01.156222,-0.7848458,3.17707038,8.91505909
2016-02-08 18:36:01.406222,-0.7609176,3.16032052,8.97727203
2016-02-08 18:36:01.656222,-0.7728817,3.13878512,9.01077175
2016-02-08 18:36:01.906222,-0.7561319,3.08375025,9.04935646
2016-02-08 18:36:02.156222,-0.7848458,3.06460762,9.03739166
2016-02-08 18:36:02.406222,-0.8087741,3.06460762,9.06849861
2016-02-08 18:36:02.656222,-0.8590233,3.01435828,9.1043911
2016-02-08 18:36:02.906222,-0.8590233,2.97846603,9.12353325
2016-02-08 18:36:03.156222,-0.8709874,2.95214486,9.14985466
2016-02-08 18:36:03.406222,-0.9212367,2.92103815,9.19053268
2016-02-08 18:36:03.656222,-0.9451649,2.86361051,9.21924686
2016-02-08 18:36:03.906222,-1.000499,2.84446788,9.23599625
2016-02-08 18:36:04.156222,-1.0411769,2.80109811,9.23599625
2016-02-08 18:36:04.406222,-1.1009976,2.74606299,9.23360348
2016-02-08 18:36:04.656222,-1.1560324,2.71256352,9.2120676
2016-02-08 18:36:04.906222,-1.2014961,2.66949272,9.18574715
2016-02-08 18:36:05.156222,-1.270888,2.64795733,9.18574715
2016-02-08 18:36:05.406222,-1.3307085,2.59770799,9.19292545
2016-02-08 18:36:05.656222,-1.3857434,2.5785656,9.20728207
2016-02-08 18:36:05.906222,-1.4216357,2.55942297,9.25274563
2016-02-08 18:36:06.156222,-1.4503496,2.50438809,9.3245306
2016-02-08 18:36:06.406222,-1.4431711,2.49481678,9.3747797
2016-02-08 18:36:06.656222,-1.4551352,2.46849561,9.44177914
2016-02-08 18:36:06.906222,-1.4551352,2.40867519,9.48484993
2016-02-08 18:36:07.156222,-1.4934205,2.35364008,9.54227734
2016-02-08 18:36:07.406222,-1.4934205,2.3201406,9.58056259
2016-02-08 18:36:07.656222,-1.498206,2.26032019,9.64546776
2016-02-08 18:36:07.906222,-1.5101702,2.18105793,9.72443104
2016-02-08 18:36:08.156222,-1.4934205,2.0877378,9.82732296
2016-02-08 18:36:08.406222,-1.5005989,2.01595306,9.92303562
2016-02-08 18:36:08.656222,-1.5245271,1.89391911,10.0378914
2016-02-08 18:36:08.906222,-1.5340984,1.80538464,10.1312113
2016-02-08 18:36:09.156222,-1.4790635,1.73120713,10.2583294
2016-02-08 18:36:09.406222,-1.4718851,1.64237368,10.344471
2016-02-08 18:36:09.656222,-1.404886,1.61605263,10.4306126
2016-02-08 18:36:09.906222,-1.3809577,1.56101763,10.5000048
2016-02-08 18:36:10.156222,-1.3307085,1.52033973,10.5502539
2016-02-08 18:36:10.406222,-1.2541381,1.52033973,10.5765753
2016-02-08 18:36:10.656222,-1.2206386,1.50598276,10.5885391
2016-02-08 18:36:10.906222,-1.1368898,1.50598276,10.6292172
2016-02-08 18:36:11.156222,-1.0698909,1.5011971,10.6196461
2016-02-08 18:36:11.406222,-1.0172488,1.49880433,10.6124678
2016-02-08 18:36:11.656222,-0.9571291,1.49162579,10.600503
2016-02-08 18:36:11.906222,-0.8997013,1.48205447,10.6052895
2016-02-08 18:36:12.156222,-0.8757731,1.47009039,10.5933247
2016-02-08 18:36:12.406222,-0.863809,1.43419802,10.5885391
2016-02-08 18:36:12.656222,-0.8877372,1.38873446,10.569397
2016-02-08 18:36:12.906222,-0.8949156,1.36959183,10.5454683
2016-02-08 18:36:13.156222,-0.9284152,1.34327078,10.5119686
2016-02-08 18:36:13.406222,-0.9451649,1.30737853,10.4904337
2016-02-08 18:36:13.656222,-0.9858429,1.27866459,10.4497557
2016-02-08 18:36:13.906222,-1.0292128,1.24755788,10.4282198
2016-02-08 18:36:14.156222,-1.0698909,1.25234354,10.4066849
2016-02-08 18:36:14.406222,-1.0962119,1.22602248,10.3971138
2016-02-08 18:36:14.656222,-1.0842477,1.21884406,10.3420782
2016-02-08 18:36:14.906222,-1.1153544,1.21645117,10.3420782
2016-02-08 18:36:15.156222,-1.093819,1.22362971,10.3277216
2016-02-08 18:36:15.406222,-1.0890334,1.23320103,10.2942219
2016-02-08 18:36:15.656222,-1.1129617,1.22362971,10.2655087
2016-02-08 18:36:15.906222,-1.0770693,1.24277222,10.272687
2016-02-08 18:36:16.156222,-1.0746765,1.20209432,10.2367945
2016-02-08 18:36:16.406222,-1.0698909,1.19730866,10.2367945
2016-02-08 18:36:16.656222,-1.0555339,1.16380906,10.2320089
2016-02-08 18:36:16.906222,-1.0507482,1.16620195,10.2032948
2016-02-08 18:36:17.156222,-1.0531411,1.1398809,10.169795
2016-02-08 18:36:17.406222,-1.0292128,1.11326075,10.1455679
2016-02-08 18:36:17.656222,-1.0339985,1.07258272,10.124033
2016-02-08 18:36:17.906222,-1.0363913,1.07497561,10.0977116
2016-02-08 18:36:18.156222,-1.0579267,1.03429759,10.0713902
2016-02-08 18:36:18.406222,-1.0435698,1.01276219,10.0450697
2016-02-08 18:36:18.656222,-1.0794622,0.9696914,10.0163555
2016-02-08 18:36:18.906222,-1.0866406,0.96012008,10.0139628
2016-02-08 18:36:19.156222,-1.0914263,0.94097751,10.0163555
2016-02-08 18:36:19.406222,-1.1057831,0.91944212,10.0283194
2016-02-08 18:36:19.656222,-1.0507482,0.89551389,10.0450697
2016-02-08 18:36:19.906222,-1.0220344,0.88115692,10.0905333
2016-02-08 18:36:20.156222,-0.9523434,0.84526461,10.1168537
2016-02-08 18:36:20.406222,-0.9068798,0.8141579,10.1554384
2016-02-08 18:36:20.656222,-0.8470592,0.79980099,10.1889381
2016-02-08 18:36:20.906222,-0.7848458,0.76869428,10.200902
2016-02-08 18:36:21.156222,-0.7441679,0.75673014,10.2631159
2016-02-08 18:36:21.406222,-0.6987042,0.70887369,10.2918291
2016-02-08 18:36:21.656222,-0.6723832,0.69212395,10.3277216
2016-02-08 18:36:21.906222,-0.6364908,0.67058855,10.344471
2016-02-08 18:36:22.156222,-0.5910272,0.67298138,10.3301144
2016-02-08 18:36:22.406222,-0.5790631,0.65144599,10.3588285
2016-02-08 18:36:22.656222,-0.567099,0.60358954,10.385149
2016-02-08 18:36:22.906222,-0.5431708,0.59641105,10.4330063
2016-02-08 18:36:23.156222,-0.5599205,0.57726848,10.4928265
2016-02-08 18:36:23.406222,-0.5766702,0.56500524,10.5239334
2016-02-08 18:36:23.656222,-0.5910272,0.52432728,10.600503
2016-02-08 18:36:23.906222,-0.5886344,0.52432728,10.6531458
2016-02-08 18:36:24.156222,-0.5910272,0.48604211,10.6962166
2016-02-08 18:36:24.406222,-0.5407779,0.46929234,10.7156582
2016-02-08 18:36:24.656222,-0.5024927,0.48604211,10.7491579
2016-02-08 18:36:24.906222,-0.4594219,0.4956134,10.7946215
2016-02-08 18:36:25.156222,-0.4426722,0.51475596,10.8640127
2016-02-08 18:36:25.406222,-0.3801597,0.52672011,10.9286194
2016-02-08 18:36:25.656222,-0.3634099,0.52911294,11.0075827
2016-02-08 18:36:25.906222,-0.3729812,0.51954162,11.1009026
2016-02-08 18:36:26.156222,-0.3969094,0.51475596,11.1607227
2016-02-08 18:36:26.406222,-0.4016951,0.49082774,11.2372932
2016-02-08 18:36:26.656222,-0.4474578,0.48125646,11.2950201
2016-02-08 18:36:26.906222,-0.4666004,0.43818563,11.3620195
2016-02-08 18:36:27.156222,-0.4905286,0.40707895,11.4074831
2016-02-08 18:36:27.406222,-0.5024927,0.36879379,11.4338036
2016-02-08 18:36:27.656222,-0.5048856,0.33050862,11.4529467
2016-02-08 18:36:27.906222,-0.4809574,0.30897322,11.4649105
2016-02-08 18:36:28.156222,-0.4642076,0.3065804,11.4625177
2016-02-08 18:36:28.406222,-0.4426722,0.32572299,11.4529467
2016-02-08 18:36:28.656222,-0.4232305,0.33050862,11.429018
2016-02-08 18:36:28.906222,-0.4256233,0.34965122,11.3668051
2016-02-08 18:36:29.156222,-0.4232305,0.3807579,11.3261271
2016-02-08 18:36:29.406222,-0.4088736,0.40468612,11.2734852
2016-02-08 18:36:29.656222,-0.4112664,0.43340001,11.2444716
2016-02-08 18:36:29.906222,-0.4351946,0.43818563,11.2014008
2016-02-08 18:36:30.156222,-0.4594219,0.44297129,11.1487589
2016-02-08 18:36:30.406222,-0.5072784,0.47886363,11.1104736
2016-02-08 18:36:30.656222,-0.5335994,0.49082774,11.0865459
2016-02-08 18:36:30.906222,-0.5742775,0.48364928,11.0267248
2016-02-08 18:36:31.156222,-0.6125626,0.49800623,10.9764757
2016-02-08 18:36:31.406222,-0.660419,0.50518471,10.9357977
2016-02-08 18:36:31.656222,-0.7202396,0.4956134,10.9262266
2016-02-08 18:36:31.906222,-0.7728817,0.48604211,10.8640127
2016-02-08 18:36:32.156222,-0.8087741,0.51475596,10.8376923
2016-02-08 18:36:32.406222,-0.8518448,0.55782676,10.8041925
2016-02-08 18:36:32.656222,-0.8805587,0.55543393,10.8041925
2016-02-08 18:36:32.906222,-0.8733802,0.57248282,10.8448706
2016-02-08 18:36:33.156222,-0.8614162,0.59401822,10.8376923
2016-02-08 18:36:33.406222,-0.8685946,0.63230336,10.8472633
2016-02-08 18:36:33.656222,-0.863809,0.62512493,10.8472633
2016-02-08 18:36:33.906222,-0.8470592,0.65383881,10.8544416
2016-02-08 18:36:34.156222,-0.8662018,0.6442675,10.8664055
2016-02-08 18:36:34.406222,-0.8733802,0.65144599,10.8783703
2016-02-08 18:36:34.656222,-0.8279166,0.67298138,10.871191
2016-02-08 18:36:34.906222,-0.8039884,0.68255264,10.8759775
2016-02-08 18:36:35.156222,-0.7106683,0.69690961,10.8927269
2016-02-08 18:36:35.406222,-0.6723832,0.74955171,10.902298
2016-02-08 18:36:35.656222,-0.6149554,0.78783685,10.9046907
2016-02-08 18:36:35.906222,-0.5096712,0.83808613,10.9118691
2016-02-08 18:36:36.156222,-0.4642076,0.88833541,10.9405832
2016-02-08 18:36:36.406222,-0.3825525,0.9098708,10.9621191
2016-02-08 18:36:36.656222,-0.3299104,0.9529416,10.9980106
2016-02-08 18:36:36.906222,-0.2892324,0.99601245,11.0530462
2016-02-08 18:36:37.156222,-0.2748755,1.00558376,11.1009026
2016-02-08 18:36:37.406222,-0.2461616,1.03908324,11.1655083
2016-02-08 18:36:37.656222,-0.2294119,1.05104733,11.2205439
2016-02-08 18:36:37.906222,-0.2294119,1.07976127,11.2660074
2016-02-08 18:36:38.156222,-0.2246262,1.09651101,11.2902346
2016-02-08 18:36:38.406222,-0.2341975,1.09411812,11.306984
2016-02-08 18:36:38.656222,-0.2605186,1.12761772,11.3093767
2016-02-08 18:36:38.906222,-0.2892324,1.16620195,11.2830563
2016-02-08 18:36:39.156222,-0.308375,1.22362971,11.2830563
2016-02-08 18:36:39.406222,-0.3299104,1.27627182,11.2492571
